"Time (s)";"Linear Acceleration x (m/s^2)";"Linear Acceleration y (m/s^2)";"Linear Acceleration z (m/s^2)";"Absolute acceleration (m/s^2)"
3,294866672E-2;-1,574041218E-1;7,871121177E-1;-6,203544974E-2;8,050900201E-1
4,291966674E-2;2,014301473E-1;6,004967684E-1;-1,050779736E-1;6,420372681E-1
5,289166665E-2;3,860428253E-1;6,767663875E-1;-1,891083097E-1;8,017504344E-1
6,286366668E-2;5,510715701E-1;6,581848133E-1;2,552514285E-1;8,955670916E-1
7,283566671E-2;2,583602469E-1;5,396898186E-1;2,461028749E-1;6,469789351E-1
8,280766674E-2;-2,320759892E-2;6,362252294E-1;8,865314484E-2;6,427911911E-1
9,277966665E-2;1,939214453E-2;8,459834929E-1;-3,814548075E-2;8,470650525E-1
1,027506667E-1;2,261322945E-1;9,736381508E-1;-4,949960411E-2;1,000778334E0
1,127226667E-1;2,440048939E-1;1,034784970E0;-1,125939846E-1;1,069109783E0
1,226946667E-1;1,023245198E-1;1,005789651E0;-3,092639136E-1;1,057226228E0
1,326666666E-1;-3,336918265E-2;1,073734077E0;-4,436832154E-1;1,162270694E0
1,426386667E-1;-9,211995900E-2;1,181863932E0;-3,911465675E-1;1,248312492E0
1,526106667E-1;-1,786018865E-1;1,158451388E0;-3,446606183E-1;1,221760695E0
1,625816667E-1;-3,229883520E-1;1,049586831E0;-3,788095272E-1;1,161658577E0
1,725536666E-1;-2,290680353E-1;8,213958049E-1;-4,101874405E-1;9,462647460E-1
1,825256667E-1;-6,566744775E-2;7,827966533E-1;-2,605256170E-1;8,276209345E-1
1,924976667E-1;-4,736171588E-2;9,784653928E-1;-3,499587804E-1;1,040244589E0
2,024696667E-1;-2,122521740E-1;1,103416079E0;-4,812802273E-1;1,222378291E0
2,124416666E-1;-3,804546413E-1;1,243413917E0;-2,411865360E-1;1,322495689E0
2,224126667E-1;-4,672647437E-1;1,310592139E0;1,434918416E-1;1,398777325E0
2,323846667E-1;-4,233327122E-1;1,468503214E0;2,183116436E-1;1,543817427E0
2,423566667E-1;-4,256096180E-1;1,529230057E0;2,920181358E-1;1,613989686E0
2,523286667E-1;-4,544751289E-1;1,409691188E0;3,225827014E-1;1,515861632E0
2,623006667E-1;-3,330217355E-1;1,267892116E0;3,805069739E-1;1,365005293E0
2,722726667E-1;-1,880366613E-1;1,218589270E0;2,493053949E-1;1,257962947E0
2,822436667E-1;-7,013106599E-2;1,208281068E0;1,457915515E-1;1,219063855E0
2,922156667E-1;-9,575985074E-3;1,180664814E0;1,997911727E-1;1,197488044E0
3,021876666E-1;-1,754552805E-1;1,277591331E0;2,628984171E-1;1,316107800E0
3,121596667E-1;-3,479514313E-1;1,359056640E0;2,192319953E-1;1,419918243E0
3,221316667E-1;-3,548069262E-1;1,411930672E0;2,783625484E-1;1,482201702E0
3,321036667E-1;-2,914494941E-1;1,465674770E0;2,842734987E-1;1,521169537E0
3,420746666E-1;-2,813979842E-1;1,498538168E0;1,846807981E-1;1,535873844E0
3,520466667E-1;-2,085306405E-1;1,513487891E0;1,553727990E-1;1,535666412E0
3,620186667E-1;9,110751361E-2;1,379294292E0;-9,204452991E-2;1,385361151E0
3,719906667E-1;3,124659951E-1;1,236001109E0;-4,214029849E-1;1,342726411E0
3,819626666E-1;2,761645069E-1;1,248193139E0;-6,152995795E-1;1,418748222E0
3,919346667E-1;5,021296442E-5;1,369369959E0;-6,803311425E-1;1,529060022E0
4,019056667E-1;-2,468476640E-1;1,477039418E0;-6,432931244E-1;1,629848231E0
4,118776667E-1;-3,292946472E-1;1,543786554E0;-6,053025949E-1;1,690592536E0
4,218496666E-1;-3,879147383E-1;1,567721108E0;-6,493982023E-1;1,740673819E0
4,318216667E-1;-4,561336186E-1;1,581954401E0;-5,709917182E-1;1,742604128E0
4,417936667E-1;-4,005739602E-1;1,544659544E0;-5,860015208E-1;1,699950113E0
4,517656667E-1;-3,117062956E-1;1,487997831E0;-5,811892623E-1;1,627599250E0
4,617366667E-1;-2,693907268E-1;1,432133533E0;-5,692428160E-1;1,564485603E0
4,717086666E-1;-3,305086023E-1;1,515914339E0;-5,514813137E-1;1,646621954E0
4,816804167E-1;-4,581063960E-1;1,644363926E0;-4,793179017E-1;1,773003058E0
4,916524166E-1;-5,390094220E-1;1,713077773E0;-3,757795000E-1;1,834768881E0
5,016244167E-1;-6,078668548E-1;1,746952740E0;-2,739999408E-1;1,869872176E0
5,115964167E-1;-5,805334605E-1;1,750700513E0;-2,249862403E-1;1,858114688E0
5,215674167E-1;-3,534536247E-1;1,673833016E0;-2,848482800E-1;1,734296679E0
5,315394166E-1;-8,392051812E-2;1,522160920E0;-3,222850782E-1;1,558166933E0
5,415114167E-1;-1,159315388E-1;1,485911691E0;-3,404389286E-1;1,528814030E0
5,514834167E-1;-2,223529832E-1;1,588316464E0;-3,284737712E-1;1,637096532E0
5,614554167E-1;-2,962475365E-1;1,633084647E0;-1,798989451E-1;1,669458504E0
5,714274166E-1;-3,902352058E-1;1,551676641E0;7,707682729E-2;1,601850415E0
5,813984167E-1;-4,767652632E-1;1,423156449E0;2,179368371E-1;1,516633067E0
5,913704167E-1;-4,817499780E-1;1,316915464E0;3,004293555E-1;1,434087577E0
6,013424167E-1;-5,205993539E-1;1,279810788E0;5,765155828E-1;1,497100383E0
6,113144166E-1;-4,073582287E-1;1,266979804E0;8,716742581E-1;1,590909979E0
6,212864167E-1;-1,007968068E-1;1,196748531E0;9,420378971E-1;1,526369039E0
6,312584167E-1;1,806958110E-1;1,076602210E0;8,527234322E-1;1,385229420E0
6,412294167E-1;3,612258533E-1;9,337636484E-1;8,026262426E-1;1,283202070E0
6,512014167E-1;3,290715394E-1;9,007076573E-1;8,686068088E-1;1,293847035E0
6,611734167E-1;2,344212161E-1;1,011742482E0;7,173755926E-1;1,262221810E0
6,711454167E-1;5,669569932E-2;1,153966282E0;3,922019899E-1;1,220112692E0
6,811174167E-1;-1,132382747E-1;1,138517061E0;5,021319830E-1;1,249472102E0
6,910894167E-1;-3,070282307E-1;9,996579681E-1;1,132455983E0;1,541440541E0
7,010604166E-1;-4,574026471E-1;9,585622747E-1;1,682577235E0;1,989755002E0
7,110324167E-1;-3,748864475E-1;8,946027256E-1;2,056069888E0;2,273384541E0
7,210044167E-1;-2,064865270E-1;6,595211944E-1;2,483294361E0;2,577664791E0
7,309764167E-1;-3,753963612E-2;2,813428742E-1;2,977568856E0;2,991066587E0
7,409484166E-1;1,105294789E-1;-2,647582702E-2;3,248624724E0;3,250612301E0
7,509204167E-1;2,515502872E-1;-1,207189831E-1;3,518012965E0;3,529060193E0
7,608914167E-1;2,785713670E-1;-1,396038817E-1;3,431871200E0;3,445987693E0
7,708634167E-1;-3,707840044E-2;-5,596918277E-2;2,805426827E0;2,806230040E0
7,808354166E-1;-2,313493631E-1;1,317758121E-1;2,264074060E0;2,279675140E0
7,908074167E-1;-3,424275666E-2;3,286221078E-1;1,587517295E0;1,621535143E0
8,007794167E-1;-2,858184792E-2;4,374956187E-1;5,880585712E-1;7,335067972E-1
8,107514167E-1;2,147062139E-1;3,264209600E-1;-4,364513791E-1;5,857808529E-1
8,207224167E-1;4,349879672E-1;6,787440620E-2;-1,282101434E0;1,355583105E0
8,306944167E-1;6,037391591E-1;-1,882731081E-1;-1,882891733E0;1,986260057E0
8,406664167E-1;7,036929618E-1;-3,301799157E-1;-2,463521417E0;2,583242213E0
8,506384167E-1;6,057403321E-1;-2,424153283E-1;-3,043902594E0;3,113041847E0
8,606104167E-1;6,448902914E-1;8,181175634E-2;-3,344637174E0;3,407223867E0
8,705824167E-1;7,562611116E-1;2,273112394E-2;-2,523037886E0;2,634040195E0
8,805534167E-1;5,226540289E-1;-2,679069228E-1;-1,450796530E0;1,565168337E0
8,905254167E-1;2,199820469E-1;-2,468511723E-1;-1,110868648E0;1,159032681E0
9,004974167E-1;2,010449620E-1;1,352392276E-1;-9,407637888E-1;9,714655072E-1
9,104694166E-1;2,401796089E-1;5,538340871E-1;-5,803273827E-1;8,373758485E-1
9,204414167E-1;3,196722864E-1;7,655433472E-1;-7,731188536E-2;8,332011250E-1
9,304134167E-1;5,122567658E-1;7,854563324E-1;1,566931003E-1;9,507372781E-1
9,403844167E-1;6,225623330E-1;4,933509269E-1;4,148120034E-1;8,961294514E-1
9,503564166E-1;5,828147882E-1;-4,315215915E-2;8,734050339E-1;1,050890831E0
9,603284167E-1;6,986654527E-1;-4,858542117E-1;1,264410099E0;1,524113063E0
9,703004167E-1;1,016885620E0;-5,354049790E-1;1,207724267E0;1,667127097E0
9,802724167E-1;1,165062104E0;-3,494258067E-1;7,210681093E-1;1,414004003E0
9,902444166E-1;1,083907648E0;-2,261550987E-1;4,401105666E-1;1,191511321E0
1,000215417E0;9,233044414E-1;-2,290497628E-1;3,962938714E-1;1,030535646E0
1,010187417E0;8,000254011E-1;-2,280393639E-1;3,038201559E-1;8,856349592E-1
1,020159417E0;8,020403516E-1;3,111157268E-2;-8,590612292E-2;8,072276739E-1
1,030131417E0;1,003202843E0;3,740709436E-1;-7,143976057E-1;1,287132065E0
1,040103417E0;1,082418654E0;5,179578377E-1;-1,444887918E0;1,878193696E0
1,050075417E0;1,033663839E0;4,116024667E-1;-1,766786495E0;2,087920507E0
1,060046417E0;8,481552950E-1;2,048827820E-1;-1,789810492E0;1,991172005E0
1,070018417E0;6,594973670E-1;2,563273162E-2;-1,831470149E0;1,946760571E0
1,079990417E0;5,280390953E-1;-1,024359823E-1;-1,925169441E0;1,998898645E0
1,089962417E0;4,493072136E-1;-1,032666524E-1;-2,049363132E0;2,100578544E0
1,099934417E0;4,957314015E-1;5,651392400E-2;-2,117024773E0;2,175025824E0
1,109906417E0;5,967131082E-1;3,507673042E-1;-2,006428782E0;2,122465710E0
1,119877417E0;6,151987881E-1;6,380725841E-1;-1,604573624E0;1,833101930E0
1,129849417E0;5,989113689E-1;8,985827060E-1;-1,098218781E0;1,540204596E0
1,139821417E0;6,075895871E-1;1,062400931E0;-7,501252627E-1;1,435461164E0
1,149793417E0;6,675361191E-1;1,106309866E0;-6,169660360E-1;1,431842547E0
1,159765417E0;6,628491372E-1;1,080803288E0;-5,285321617E-1;1,373626941E0
1,169737417E0;5,917360313E-1;1,040320675E0;-3,738183439E-1;1,253857565E0
1,179708417E0;5,073275265E-1;1,014755771E0;-2,048285490E-1;1,152850914E0
1,189680417E0;4,556812634E-1;1,006226145E0;-1,592793238E-1;1,116022568E0
1,199652417E0;5,014898857E-1;1,048215878E0;-1,590156144E-1;1,172831871E0
1,209624417E0;5,507731428E-1;1,113084012E0;-1,752083087E-1;1,254194970E0
1,219596417E0;6,409423245E-1;1,185166440E0;-2,097823101E-1;1,363611077E0
1,229568417E0;6,213069358E-1;1,269118569E0;-2,443393546E-1;1,434010450E0
1,239539417E0;5,142433208E-1;1,303589952E0;-2,698051482E-1;1,427090668E0
1,249511417E0;4,789841719E-1;1,304335472E0;-3,072431159E-1;1,423065421E0
1,259483417E0;4,398660799E-1;1,321413873E0;-2,904376334E-1;1,422663281E0
1,269455417E0;4,108377240E-1;1,295894431E0;-2,332682365E-1;1,379327402E0
1,279427417E0;3,956906580E-1;1,225000889E0;-1,397092777E-1;1,294881059E0
1,289399417E0;3,842525540E-1;1,184113356E0;1,263665164E-1;1,251296512E0
1,299370417E0;3,868001859E-1;1,091761847E0;2,719013751E-1;1,189743112E0
1,309342417E0;2,919296236E-1;1,071074179E0;2,396077877E-1;1,135708895E0
1,319314417E0;3,266304365E-1;9,556699495E-1;5,558445060E-1;1,152803370E0
1,329286417E0;4,594331293E-1;6,317269664E-1;1,530315739E0;1,718145518E0
1,339258417E0;1,875020796E-1;4,885763099E-1;2,301365848E0;2,360116227E0
1,349230417E0;-1,315382324E-2;4,988093027E-1;2,829570565E0;2,873230469E0
1,359201417E0;-5,783035152E-2;5,567553560E-1;3,054696554E0;3,105558229E0
1,369173417E0;-1,537206683E-1;4,625255024E-1;3,122457013E0;3,160268609E0
1,379145417E0;-1,645692998E-1;1,312330808E-1;3,338647871E0;3,345276488E0
1,389117417E0;-1,044983684E-1;-2,422926830E-1;3,503420069E0;3,513342829E0
1,399089417E0;-7,940665036E-3;-5,087589980E-1;3,463277180E0;3,500455341E0
1,409061417E0;7,706962790E-2;-6,243173017E-1;3,313624127E0;3,372805461E0
1,419033417E0;1,379987479E-1;-5,813901141E-1;2,911408780E0;2,972096769E0
1,429004417E0;1,037703169E-1;-4,967159995E-1;2,262688270E0;2,318890526E0
1,438976417E0;-8,295751825E-2;-4,798383405E-1;1,433375920E0;1,513833977E0
1,448948417E0;-2,503025279E-1;-4,871826626E-1;4,667118895E-1;7,195959213E-1
1,458920417E0;-4,061469414E-1;-2,691460939E-1;-5,734592432E-1;7,524961538E-1
1,468892417E0;-6,847430129E-1;-2,003839708E-1;-1,440936370E0;1,607894384E0
1,478864458E0;-1,158360099E0;-4,825647875E-1;-1,825815892E0;2,215461704E0
1,488835458E0;-1,424018767E0;-5,903050715E-1;-1,850133292E0;2,408169995E0
1,498807458E0;-1,576424835E0;-5,273308147E-1;-1,902600943E0;2,526476478E0
1,508779458E0;-1,606761213E0;-3,165404446E-1;-1,792200249E0;2,427727576E0
1,518751458E0;-1,571086035E0;-1,082989854E-1;-1,349478316E0;2,073917000E0
1,528723458E0;-1,662820955E0;2,171326987E-3;-6,478826040E-1;1,784581214E0
1,538695458E0;-1,795198993E0;-7,464372776E-3;1,115625358E-1;1,798677665E0
1,548666458E0;-1,711449616E0;-1,094144880E-1;6,058662665E-1;1,818819741E0
1,558638458E0;-1,554965407E0;-2,657640644E-1;7,238478756E-1;1,735656563E0
1,568610458E0;-1,307405845E0;-4,168620372E-1;7,773709488E-1;1,577146028E0
1,578582458E0;-1,134504263E0;-5,103696135E-1;7,559514284E-1;1,455692147E0
1,588554458E0;-1,164705205E0;-5,739684626E-1;6,788985747E-1;1,465223971E0
1,598526458E0;-1,188192447E0;-6,529534556E-1;5,680318576E-1;1,469969284E0
1,608497458E0;-1,229771193E0;-6,225599941E-1;2,865533280E-1;1,407846207E0
1,618469458E0;-1,258539348E0;-5,328122505E-1;1,445841014E-2;1,366755000E0
1,628441458E0;-1,331221262E0;-4,076315495E-1;-2,140051693E-1;1,408585014E0
1,638413458E0;-1,330227381E0;-3,323331528E-1;-3,573397207E-1;1,416912801E0
1,648385458E0;-1,245770929E0;-2,644491718E-1;-4,710271347E-1;1,357845770E0
1,658357458E0;-1,178190419E0;-1,963014083E-1;-6,193984777E-1;1,345481839E0
1,668328458E0;-1,085083742E0;-1,887393504E-1;-8,038278455E-1;1,363513284E0
1,678300458E0;-1,025542715E0;-2,326799335E-1;-9,852610999E-1;1,441047274E0
1,688272458E0;-9,214280699E-1;-3,019010997E-1;-1,122927945E0;1,483624323E0
1,698244458E0;-8,080827181E-1;-3,390454640E-1;-1,196842014E0;1,483367895E0
1,708216458E0;-6,558211494E-1;-3,254188934E-1;-1,232814084E0;1,433816377E0
1,718188458E0;-5,142216130E-1;-3,199251419E-1;-1,233317530E0;1,373989844E0
1,728159458E0;-4,500047499E-1;-2,604236562E-1;-1,192522091E0;1,300935699E0
1,738131458E0;-4,965224933E-1;-1,595915651E-1;-1,135948525E0;1,249953241E0
1,748103458E0;-6,239787479E-1;-6,750332728E-2;-1,068078724E0;1,238829422E0
1,758075458E0;-6,656769238E-1;2,052365385E-2;-1,037549826E0;1,232905766E0
1,768047458E0;-6,595178322E-1;1,023145064E-1;-1,040495068E0;1,236148056E0
1,778019458E0;-5,971468620E-1;1,917369986E-1;-1,120083275E0;1,283718814E0
1,787990458E0;-5,144625183E-1;2,946390040E-1;-1,222172737E0;1,358377717E0
1,797962458E0;-4,343761291E-1;4,297267156E-1;-1,243119802E0;1,385169489E0
1,807934458E0;-3,246170574E-1;5,487890363E-1;-1,178899248E0;1,340279477E0
1,817906458E0;-2,781529622E-1;6,262332150E-1;-1,063526081E0;1,265158028E0
1,827878458E0;-3,169004869E-1;7,498969290E-1;-8,701645070E-1;1,191619735E0
1,837850458E0;-4,937521921E-1;8,584009324E-1;-7,191057837E-1;1,223828630E0
1,847822458E0;-6,349136259E-1;8,927114437E-1;-6,634578323E-1;1,280712821E0
1,857793458E0;-6,178903346E-1;7,957143952E-1;-5,326234585E-1;1,139577822E0
1,867765458E0;-4,683599272E-1;8,015541556E-1;-4,033245635E-1;1,012186144E0
1,877737458E0;-3,799429003E-1;8,862812606E-1;-3,000451934E-1;1,009890191E0
1,887709458E0;-3,072207868E-1;8,999133130E-1;-5,480127454E-2;9,524871456E-1
1,897681458E0;-2,000970187E-1;8,409972797E-1;2,488744551E-1;8,995853132E-1
1,907653458E0;-1,220657065E-1;7,862948231E-1;5,018869847E-1;9,407710301E-1
1,917624458E0;-8,641293034E-2;7,952201593E-1;7,890332204E-1;1,123572748E0
1,927596458E0;-6,266870320E-2;7,997326018E-1;1,119819565E0;1,377496083E0
1,937568458E0;9,484461531E-2;6,405186937E-1;1,411445353E0;1,552880447E0
1,947540458E0;3,587736042E-1;3,757908290E-1;1,702547230E0;1,780057391E0
1,957512458E0;4,784587996E-1;2,503740466E-1;1,683067816E0;1,767576663E0
1,967484458E0;6,471587918E-1;3,537191248E-1;1,227859738E0;1,432330708E0
1,977455458E0;7,873746577E-1;2,538506549E-1;9,714873987E-1;1,276004221E0
1,987427458E0;6,767938694E-1;-2,257273749E-2;1,238215157E0;1,411288860E0
1,997399458E0;3,988759287E-1;-5,458485447E-2;1,847955204E0;1,891301126E0
2,007371458E0;1,956639887E-1;2,446788586E-1;2,370113316E0;2,390729862E0
2,017343458E0;3,033962510E-1;6,253703121E-1;2,741334327E0;2,828082602E0
2,027315458E0;5,032018042E-1;7,647156007E-1;3,040738665E0;3,175546195E0
2,037286458E0;6,162291406E-1;6,378938055E-1;3,474450624E0;3,585868653E0
2,047258458E0;8,276900402E-1;3,627512457E-1;3,836297379E0;3,941298878E0
2,057230458E0;1,176117581E0;2,105966080E-1;3,764339204E0;3,949411746E0
2,067202458E0;1,552329044E0;1,317284131E-1;3,135946539E0;3,501605136E0
2,077174458E0;1,702187334E0;-1,774608023E-2;1,987785519E0;2,617068573E0
2,087146458E0;1,457541585E0;-1,905822466E-1;5,143538332E-1;1,557340339E0
2,097117458E0;1,077186054E0;-1,867281641E-1;-8,761239892E-1;1,400996234E0
2,107089458E0;7,175443579E-1;-2,846048896E-1;-2,127811716E0;2,263504484E0
2,117061458E0;1,226057152E-1;-4,899533292E-1;-3,181311577E0;3,221153485E0
2,127033458E0;-4,381789755E-1;-7,242544033E-1;-3,839151989E0;3,931365316E0
2,137005458E0;-9,713953051E-1;-8,583673109E-1;-3,971679132E0;4,177874867E0
2,146977458E0;-1,620121224E0;-1,245454595E0;-3,756089952E0;4,275998323E0
2,156948458E0;-2,100861461E0;-1,570489619E0;-3,017787759E0;3,998387110E0
2,166920458E0;-2,260151163E0;-1,626141371E0;-2,229307101E0;3,566851439E0
2,176892458E0;-2,312480527E0;-1,407102480E0;-1,852081584E0;3,279894781E0
2,186864458E0;-2,200198492E0;-1,122725778E0;-1,051610625E0;2,684636192E0
2,196836458E0;-1,847355718E0;-9,590448162E-1;1,019111216E-1;2,083956810E0
2,206808458E0;-1,384543483E0;-8,410632802E-1;6,962917024E-1;1,763283934E0
2,216780458E0;-9,345579196E-1;-7,699239349E-1;4,893031919E-1;1,305985828E0
2,226751458E0;-5,817408740E-1;-8,418059497E-1;2,782064277E-1;1,060404884E0
2,236723458E0;-4,604347208E-1;-9,844743571E-1;4,247902769E-1;1,166891885E0
2,246695458E0;-4,586395525E-1;-1,036738525E0;7,122961164E-1;1,338858755E0
2,256667458E0;-4,764475036E-1;-8,924089234E-1;7,026452869E-1;1,231708695E0
2,266639458E0;-4,982170529E-1;-6,414973714E-1;5,015952086E-1;9,546396507E-1
2,276611458E0;-4,840033487E-1;-3,287884245E-1;2,303153926E-1;6,288133664E-1
2,286582458E0;-4,704304263E-1;5,427721784E-2;1,008024895E-1;4,841610726E-1
2,296554458E0;-4,466890862E-1;4,359233755E-1;1,430439448E-1;6,403295239E-1
2,306526458E0;-3,762029846E-1;1,001931439E0;-6,655762786E-1;1,260312293E0
2,316498458E0;-1,622676165E-1;1,298708696E0;-8,170378751E-1;1,542895313E0
2,326470458E0;-2,609773510E-1;1,126310998E0;-5,990203464E-1;1,302117897E0
2,336442458E0;-3,104000276E-1;1,001586234E0;-9,962433404E-1;1,446383059E0
2,346413458E0;-1,509940385E-1;7,381906570E-1;-1,221188650E0;1,434930788E0
2,356385458E0;-2,389599893E-1;3,535092828E-1;-7,824820000E-1;8,912624585E-1
2,366357458E0;-5,281068499E-1;2,447669688E-1;-1,684290469E-1;6,059505407E-1
2,376329458E0;-5,049381349E-1;9,497063743E-1;-7,910809153E-1;1,335183033E0
2,386301458E0;-1,245042513E-1;1,569362860E0;-1,297201869E0;2,039885728E0
2,396273458E0;1,890551366E-1;1,835812292E0;-1,240541764E0;2,223711421E0
2,406245458E0;5,818949847E-1;1,698796095E0;-1,035985111E0;2,073107594E0
2,416216458E0;8,965593501E-1;1,383722680E0;-9,375226772E-1;1,896696047E0
2,426188458E0;1,020005255E0;1,106321268E0;-8,829500288E-1;1,744694306E0
2,436160458E0;1,036019610E0;8,761488399E-1;-5,608082074E-1;1,468155055E0
2,446132458E0;9,169726378E-1;7,545483890E-1;-2,561191553E-1;1,214816493E0
2,456104458E0;7,633958110E-1;8,711734441E-1;-3,461393791E-1;1,208937055E0
2,466076458E0;8,675657120E-1;9,953243773E-1;-3,526537621E-1;1,366640244E0
2,476047917E0;1,111591802E0;1,088321784E0;-3,970844150E-1;1,605539371E0
2,486019917E0;1,060944536E0;9,852230199E-1;-6,063492465E-1;1,569690134E0
2,495991917E0;5,245323008E-1;6,224468505E-1;-6,113474464E-1;1,017997994E0
2,505963917E0;1,912887365E-2;-3,386268765E-2;-2,485265458E-1;2,515512659E-1
2,515935917E0;-6,138287124E-1;-6,762902780E-1;1,767478806E-1;9,302655758E-1
2,525907917E0;-1,422132455E0;-1,040908467E0;5,741842979E-1;1,853547616E0
2,535878917E0;-1,933197230E0;-1,084876020E0;1,471391593E0;2,660676742E0
2,545850917E0;-2,264964299E0;-6,379005298E-1;3,330199814E0;4,077647749E0
2,555822917E0;-2,496309971E0;3,712662535E-1;4,543886486E0;5,197721280E0
2,565794917E0;-2,545801389E0;1,047086415E0;2,635739459E0;3,811117575E0
2,575766917E0;-2,101901388E0;5,340026705E-1;1,312906321E0;2,535127473E0
2,585738917E0;-1,113694168E0;-2,698367232E-1;1,094825642E0;1,584856380E0
2,595709917E0;-4,893996344E-1;-1,292540907E0;9,618500179E-1;1,683843655E0
2,605681917E0;-2,368124167E-1;-1,821440420E0;1,266152569E0;2,230889431E0
2,615653917E0;-2,752270155E-1;-1,663021222E0;1,707455968E0;2,399332277E0
2,625625917E0;-3,219014277E-1;-1,170562653E0;2,079743510E0;2,408146699E0
2,635597917E0;-2,302470716E-1;-7,064658576E-1;2,117580843E0;2,244160500E0
2,645569917E0;2,910190750E-2;-4,207018306E-1;1,917600805E0;1,963422980E0
2,655541917E0;1,035445121E0;6,749830233E-2;1,255004852E0;1,628416347E0
2,665512917E0;1,463694610E0;6,120217035E-1;5,775061011E-2;1,587547672E0
2,675484917E0;9,670197605E-1;4,154248647E-1;1,457184613E-2;1,052576541E0
2,685456917E0;4,832597656E-1;-2,854411876E-1;6,421698743E-1;8,528767907E-1
2,695428917E0;-3,366207333E-2;-8,522791900E-1;6,393351442E-1;1,065956087E0
2,705400917E0;-3,337517604E-2;-9,373191210E-1;1,180611312E-1;9,453144808E-1
2,715372917E0;-2,191901878E-1;-5,490160545E-1;-8,796264714E-1;1,059813991E0
2,725343917E0;-4,424426555E-1;-1,498023029E-1;-1,249258209E0;1,333732472E0
2,735315917E0;-1,048691988E0;-2,531844378E-4;-8,217676878E-1;1,332312682E0
2,745287917E0;-1,650006635E0;-9,377472103E-4;-3,679190880E-1;1,690528684E0
2,755259917E0;-2,040737904E0;-5,618099816E-2;-3,973194730E-1;2,079814959E0
2,765231917E0;-2,215451831E0;-9,689684182E-2;-7,572354770E-1;2,343292850E0
2,775203917E0;-2,302212817E0;-1,522090168E-1;-8,023777360E-1;2,442777409E0
2,785175917E0;-2,232605369E0;-3,412877250E-1;-6,824039805E-1;2,359381113E0
2,795146917E0;-2,036414619E0;-5,161536793E-1;-6,235500008E-1;2,191395383E0
2,805118917E0;-1,849619322E0;-5,981002139E-1;-3,609509611E-1;1,977144683E0
2,815090917E0;-1,626947263E0;-6,184218465E-1;2,441738784E-2;1,740689285E0
2,825062917E0;-1,524800207E0;-7,050497351E-1;2,558753264E-1;1,699288964E0
2,835034917E0;-1,486409581E0;-9,237508763E-1;5,072769481E-1;1,822102913E0
2,845006917E0;-1,315726140E0;-1,062775737E0;7,283432150E-1;1,841497050E0
2,854977917E0;-1,212673569E0;-9,975748976E-1;6,628672636E-1;1,704442980E0
2,864949917E0;-1,263919810E0;-7,977789740E-1;3,697247082E-1;1,539688584E0
2,874921917E0;-1,323384677E0;-5,779922240E-1;-3,637260497E-2;1,444557019E0
2,884893917E0;-1,249106035E0;-5,316169334E-1;2,029147553E-1;1,372609503E0
2,894865917E0;-1,242056778E0;-4,842740017E-1;-2,537627274E-1;1,357063694E0
2,904837917E0;-1,138870452E0;-3,644902077E-1;-5,804852575E-1;1,329226148E0
2,914808917E0;-1,034236867E0;-2,848970311E-1;-5,894215572E-1;1,224022053E0
2,924780917E0;-1,062050390E0;-2,290422345E-1;-7,668412828E-1;1,329833422E0
2,934752917E0;-1,051126257E0;-1,210660885E-1;-9,158552349E-1;1,399397805E0
2,944724917E0;-1,068170598E0;-2,390889935E-2;-1,000324697E0;1,463628901E0
2,954696917E0;-1,002417562E0;-1,145491473E-2;-1,083427665E0;1,476071708E0
2,964668917E0;-9,116084021E-1;-5,807703093E-2;-1,088891888E0;1,421298126E0
2,974640917E0;-8,435169911E-1;-8,886210971E-2;-1,008689724E0;1,317904529E0
2,984611917E0;-8,462675214E-1;-6,233424246E-2;-7,875111902E-1;1,157682232E0
2,994583917E0;-8,080457345E-1;-4,563225567E-2;-5,796526140E-1;9,954985508E-1
3,004555917E0;-7,416691656E-1;-3,545108378E-2;-5,166921347E-1;9,045997417E-1
3,014527917E0;-6,795630377E-1;-4,436721057E-2;-5,415498179E-1;8,700865341E-1
3,024499917E0;-6,132684030E-1;-3,203733310E-2;-5,640007871E-1;8,337993840E-1
3,034471917E0;-5,709357311E-1;2,856313683E-2;-5,726564205E-1;8,091469815E-1
3,044442917E0;-4,848210818E-1;7,058473684E-2;-6,158363539E-1;7,869486014E-1
3,054414917E0;-5,127000213E-1;5,717341684E-2;-6,757896101E-1;8,501892193E-1
3,064386917E0;-6,157461606E-1;8,574181616E-2;-6,103580976E-1;8,712244261E-1
3,074358917E0;-6,298412394E-1;1,521876014E-1;-5,579506731E-1;8,550847949E-1
3,084330917E0;-6,413979688E-1;2,168723515E-1;-5,090287739E-1;8,470745326E-1
3,094302917E0;-6,942365523E-1;2,985545189E-1;-3,648685956E-1;8,391831048E-1
3,104273917E0;-7,147411296E-1;3,528304942E-1;-2,838641936E-1;8,461224027E-1
3,114245917E0;-6,783840197E-1;3,414339785E-1;-2,597303957E-1;8,026468204E-1
3,124217917E0;-6,849693002E-1;3,119773141E-1;-1,233440906E-1;7,627100048E-1
3,134189917E0;-7,483618887E-1;3,164626401E-1;1,408091390E-1;8,246340598E-1
3,144161917E0;-7,071803874E-1;3,072679666E-1;2,783461761E-1;8,197525830E-1
3,154133917E0;-5,816636542E-1;2,704518503E-1;3,605790782E-1;7,358628144E-1
3,164105917E0;-4,717178005E-1;2,046933322E-1;4,646039683E-1;6,930179585E-1
3,174076917E0;-4,036167050E-1;1,939088738E-1;6,845247656E-1;8,179738692E-1
3,184048917E0;-3,751518014E-1;2,705919642E-1;7,943793297E-1;9,192374038E-1
3,194020917E0;-3,520408277E-1;2,922925164E-1;8,082296294E-1;9,287641215E-1
3,203992917E0;-2,809460127E-1;2,475087648E-1;8,905081397E-1;9,660207025E-1
3,213964917E0;-2,868242186E-1;2,749971103E-1;7,271252400E-1;8,286149031E-1
3,223936917E0;-3,767873042E-1;3,441617777E-1;5,287274587E-1;7,348256442E-1
3,233907917E0;-4,336955863E-1;2,004334163E-1;8,378896308E-1;9,645332806E-1
3,243879917E0;-5,916780708E-1;-2,588058047E-2;1,358750830E0;1,482213400E0
3,253851917E0;-6,858726950E-1;-1,755351681E-1;1,964858002E0;2,088516439E0
3,263823917E0;-6,310220846E-1;-2,561328232E-1;2,319122087E0;2,417047817E0
3,273795917E0;-4,441374344E-1;-3,290975229E-1;2,448005245E0;2,509639998E0
3,283767917E0;-2,253436148E-1;-4,949661472E-1;2,519532480E0;2,577559922E0
3,293739917E0;6,903982937E-2;-7,204212610E-1;2,461770176E0;2,565947328E0
3,303710917E0;3,160190922E-1;-8,019468693E-1;2,246196783E0;2,405906656E0
3,313682917E0;3,618425153E-1;-6,502065068E-1;1,490840017E0;1,666224013E0
3,323654917E0;5,291231690E-1;-6,674414673E-1;1,991983235E0;2,166436394E0
3,333626917E0;7,042920090E-1;-5,457305771E-1;1,512215683E0;1,755176734E0
3,343598917E0;9,593058944E-1;-3,101564911E-1;3,916260391E-1;1,081589480E0
3,353570917E0;9,924783182E-1;-2,594998692E-1;-5,107297289E-1;1,145948625E0
3,363541917E0;6,057524651E-1;-3,163429914E-1;-1,258024355E0;1,431654363E0
3,373513917E0;2,230268018E-1;-4,023683976E-1;-1,723113642E0;1,783469064E0
3,383485917E0;4,433614723E-3;-3,681232289E-1;-1,976868768E0;2,010856657E0
3,393457917E0;-2,150115664E-1;-2,024641543E-1;-2,005941709E0;2,027565991E0
3,403429917E0;-4,896528554E-1;-3,065746330E-2;-1,859348504E0;1,922986390E0
3,413401917E0;-6,970146375E-1;-4,280161858E-4;-1,577688126E0;1,724798368E0
3,423372917E0;-7,583927871E-1;-9,617061764E-2;-1,170756415E0;1,398241392E0
3,433344917E0;-6,916045743E-1;-2,137743504E-1;-7,010332096E-1;1,007702298E0
3,443316917E0;-5,067231071E-1;-2,856131689E-1;-2,526564342E-1;6,341754199E-1
3,453288917E0;-3,362200529E-1;-3,294827083E-1;1,193323159E-1;4,856366755E-1
3,463260917E0;-2,755288049E-1;-3,779335412E-1;5,252553821E-1;7,033086806E-1
3,473232917E0;-2,386264788E-1;-4,407226970E-1;7,939285094E-1;9,388831503E-1
3,483208708E0;-2,575441948E-1;-4,870316217E-1;8,340216976E-1;9,995604059E-1
3,493179708E0;-2,743525279E-1;-5,262060662E-1;6,523937309E-1;8,819182013E-1
3,503151708E0;-2,896738043E-1;-5,566674285E-1;3,119384301E-1;7,007817942E-1
3,513123708E0;-3,710869633E-1;-5,784336888E-1;-3,858811498E-2;6,883168669E-1
3,523095708E0;-5,260695338E-1;-4,820655815E-1;-3,174307197E-1;7,809600764E-1
3,533067708E0;-6,157148780E-1;-3,228122777E-1;-5,355330330E-1;8,775580933E-1
3,543039708E0;-6,863463926E-1;-2,204382028E-1;-6,919852281E-1;9,992536854E-1
3,553010708E0;-8,288784868E-1;-1,542864595E-1;-7,575021100E-1;1,133425474E0
3,562982708E0;-8,643482085E-1;-7,834567308E-2;-8,010720527E-1;1,181080989E0
3,572954708E0;-7,713415193E-1;3,989262879E-3;-8,298485398E-1;1,132974957E0
3,582926708E0;-6,820919584E-1;7,585073926E-2;-7,633961034E-1;1,026536110E0
3,592898708E0;-5,766786470E-1;1,050854288E-1;-6,946989208E-1;9,089597350E-1
3,602870708E0;-4,545918905E-1;1,070987713E-1;-7,163593465E-1;8,551576738E-1
3,612842708E0;-3,874378613E-1;1,366940148E-1;-6,346702355E-1;7,560421006E-1
3,622813708E0;-3,323506579E-1;2,387402071E-1;-5,379876941E-1;6,759323970E-1
3,632785708E0;-2,816476786E-1;3,429883146E-1;-5,535038656E-1;7,094596028E-1
3,642757708E0;-1,688783140E-1;3,871856636E-1;-6,043834126E-1;7,373682475E-1
3,652729708E0;-1,055422243E-1;4,493216123E-1;-5,941642338E-1;7,523697290E-1
3,662701708E0;-1,069846227E-1;5,619303612E-1;-5,292303193E-1;7,792920962E-1
3,672673708E0;-8,029716304E-2;6,500759677E-1;-4,641888160E-1;8,028185692E-1
3,682644708E0;-6,150523976E-2;6,861515341E-1;-3,755409336E-1;7,846131627E-1
3,692616708E0;-4,539221833E-2;7,117424581E-1;-2,608507222E-1;7,593950747E-1
3,702588708E0;1,102927398E-2;7,425114571E-1;-1,351542968E-1;7,547924169E-1
3,712560708E0;8,123523915E-2;7,457079837E-1;-4,203387916E-2;7,512964847E-1
3,722532708E0;1,060361038E-1;7,058581126E-1;-3,517451048E-2;7,146443708E-1
3,732504708E0;1,058954692E-1;6,590049583E-1;-4,054517806E-2;6,686892380E-1
3,742476708E0;9,835300866E-2;6,409817932E-1;-9,479038239E-2;6,553748470E-1
3,752447708E0;3,797378275E-2;6,412890644E-1;-1,730524403E-1;6,653125727E-1
3,762419708E0;-1,435621178E-2;6,311382980E-1;-2,050554210E-1;6,637690695E-1
3,772391708E0;-7,961323980E-2;6,400728435E-1;-1,462458801E-1;6,613768747E-1
3,782363708E0;-1,387149222E-1;6,517139921E-1;-4,617078424E-2;6,679106964E-1
3,792335708E0;-1,323773079E-1;6,542144077E-1;4,206486940E-2;6,687972010E-1
3,802307708E0;-8,546007173E-2;6,321207764E-1;1,546927679E-1;6,563611447E-1
3,812278708E0;-3,726004785E-2;5,514389945E-1;3,171652561E-1;6,372339253E-1
3,822250708E0;-3,416208336E-2;4,823258556E-1;4,725760621E-1;6,761164200E-1
3,832222708E0;-8,338794641E-2;4,678103621E-1;6,080952251E-1;7,717382246E-1
3,842194708E0;-1,410756990E-1;4,346752142E-1;6,542472982E-1;7,980503881E-1
3,852166708E0;-2,115716312E-1;4,243840416E-1;5,010771453E-1;6,898859873E-1
3,862138708E0;-2,360616342E-1;3,434682249E-1;4,928536212E-1;6,454457441E-1
3,872110708E0;-2,135771348E-1;1,658573683E-1;7,878585148E-1;8,329735281E-1
3,882081708E0;-1,135806840E-1;5,087516159E-2;1,198390941E0;1,204835965E0
3,892053708E0;-1,046718479E-1;-5,763907447E-2;1,711271276E0;1,715438089E0
3,902025708E0;-2,489225119E-1;-1,284884709E-1;2,142056703E0;2,160295957E0
3,911997708E0;-3,738365068E-1;-1,984814695E-1;2,432140580E0;2,468695289E0
3,921969708E0;-4,127643085E-1;-3,504849567E-1;2,651126992E0;2,705861860E0
3,931941708E0;-3,871607398E-1;-5,872074359E-1;2,733211375E0;2,822259809E0
3,941912708E0;-2,658828725E-1;-8,347825666E-1;2,651379592E0;2,792377012E0
3,951884708E0;-8,685878967E-2;-1,058452745E0;2,371303225E0;2,598258194E0
3,961856708E0;1,090739516E-1;-1,201095790E0;1,910692320E0;2,259485199E0
3,971828708E0;1,924568640E-1;-1,224986417E0;1,248225006E0;1,759459301E0
3,981800708E0;2,176326722E-1;-1,147388822E0;4,970098221E-1;1,269205993E0
3,991772708E0;1,447569323E-1;-9,985953829E-1;-2,828900474E-1;1,047938017E0
4,001744708E0;-1,655513031E-2;-8,326151499E-1;-1,000780780E0;1,301954004E0
4,011715708E0;-1,448946617E-1;-6,858581501E-1;-1,507423890E0;1,662444780E0
4,021687708E0;-3,197610544E-1;-5,270497464E-1;-1,747363214E0;1,852918447E0
4,031659708E0;-4,834701557E-1;-3,336722383E-1;-1,805125519E0;1,898304163E0
4,041631708E0;-6,773590028E-1;-1,934484056E-1;-1,766678907E0;1,901944233E0
4,051603708E0;-8,119043121E-1;-1,162615044E-1;-1,692024581E0;1,880333091E0
4,061575708E0;-9,029695795E-1;-6,511218153E-2;-1,517523785E0;1,767051809E0
4,071547708E0;-9,870452316E-1;-1,552238412E-2;-1,159723889E0;1,522976931E0
4,081518708E0;-9,218659533E-1;-8,379878640E-2;-8,642178887E-1;1,266385262E0
4,091490708E0;-7,140167326E-1;-3,191267777E-1;-6,395240092E-1;1,010273603E0
4,101462708E0;-5,261491655E-1;-5,603589951E-1;-2,448498166E-1;8,067134438E-1
4,111434708E0;-4,487232960E-1;-7,016878784E-1;2,350194776E-1;8,654204932E-1
4,121406708E0;-4,884699271E-1;-7,605816192E-1;7,004116505E-1;1,143531263E0
4,131378708E0;-5,599260818E-1;-7,473264930E-1;1,027426541E0;1,388387339E0
4,141349708E0;-5,931940345E-1;-6,915451520E-1;1,178723831E0;1,489799896E0
4,151321708E0;-6,248083216E-1;-6,282524778E-1;1,070997654E0;1,390008125E0
4,161293708E0;-6,786878557E-1;-5,897075591E-1;9,164937508E-1;1,283874217E0
4,171265708E0;-5,775588357E-1;-6,184908436E-1;6,024766356E-1;1,038789309E0
4,181237708E0;-4,306301470E-1;-6,952613499E-1;1,762795186E-1;8,366033330E-1
4,191209708E0;-4,445295998E-1;-6,716844262E-1;-5,522812128E-2;8,073516452E-1
4,201181708E0;-4,948014019E-1;-5,138827669E-1;-1,835066772E-1;7,365993660E-1
4,211152708E0;-5,584688095E-1;-2,738650163E-1;-3,822219622E-1;7,300569065E-1
4,221124708E0;-6,155426044E-1;-5,848531276E-2;-5,334052312E-1;8,165992716E-1
4,231096708E0;-6,262852552E-1;1,096831676E-1;-5,822838610E-1;8,621589836E-1
4,241068708E0;-6,101466111E-1;2,668799324E-1;-6,633110672E-1;9,399390178E-1
4,251040708E0;-5,628143871E-1;3,866074470E-1;-7,508433008E-1;1,014884730E0
4,261012708E0;-4,454067187E-1;4,041569877E-1;-7,733936727E-1;9,797284261E-1
4,270984708E0;-4,297941779E-1;3,844450736E-1;-7,891238523E-1;9,773625244E-1
4,280955708E0;-4,915257186E-1;3,951626544E-1;-7,244021916E-1;9,604736283E-1
4,290927708E0;-5,023383898E-1;4,556054688E-1;-7,002701479E-1;9,748325400E-1
4,300899708E0;-5,125731368E-1;4,740067296E-1;-7,195753151E-1;1,002597743E0
4,310871708E0;-5,364350391E-1;4,177905019E-1;-7,162464952E-1;9,875831594E-1
4,320843708E0;-5,320245209E-1;3,972389276E-1;-7,011361206E-1;9,656296992E-1
4,330815708E0;-5,741878428E-1;4,439288715E-1;-5,729060966E-1;9,246544854E-1
4,340786708E0;-6,565455464E-1;5,144946780E-1;-3,729254740E-1;9,136904494E-1
4,350758708E0;-7,391161251E-1;5,757820496E-1;-2,105775315E-1;9,602918888E-1
4,360730708E0;-7,878816113E-1;6,170932129E-1;-1,177325177E-1;1,007681702E0
4,370702708E0;-8,437931990E-1;6,329048149E-1;-1,419750738E-1;1,064289617E0
4,380674708E0;-8,364137205E-1;6,097089470E-1;-2,875713283E-1;1,074257967E0
4,390646708E0;-7,400230283E-1;5,782882393E-1;-4,156031317E-1;1,027023531E0
4,400618708E0;-7,089086781E-1;6,208573580E-1;-4,299048364E-1;1,035776782E0
4,410589708E0;-7,559346908E-1;6,747565533E-1;-2,911024618E-1;1,054264818E0
4,420561708E0;-7,796211766E-1;6,737874504E-1;-1,574865675E-1;1,042401423E0
4,430533708E0;-8,242281961E-1;6,594452537E-1;-5,955038309E-2;1,057244726E0
4,440505708E0;-8,336656753E-1;6,469329431E-1;8,823097587E-2;1,058917087E0
4,450477708E0;-8,181753047E-1;6,124696733E-1;1,946158022E-1;1,040387063E0
4,460449708E0;-7,986578836E-1;5,648913181E-1;4,224285865E-1;1,065552686E0
4,470420708E0;-7,977500302E-1;4,798013934E-1;7,162862563E-1;1,174598012E0
4,480389208E0;-7,908683690E-1;4,276226681E-1;8,595909870E-1;1,243877240E0
4,490361208E0;-7,199913445E-1;3,564702398E-1;9,559934467E-1;1,248752192E0
4,500333208E0;-6,187918290E-1;2,757240654E-1;1,010915759E0;1,216913209E0
4,510305208E0;-6,007273314E-1;2,675957047E-1;7,817768258E-1;1,021594730E0
4,520277208E0;-6,020479250E-1;2,161339212E-1;6,472177756E-1;9,099815520E-1
4,530249208E0;-7,143353328E-1;-6,999204844E-2;1,060917054E0;1,280905480E0
4,540220208E0;-7,239599229E-1;-3,270687584E-1;1,549296386E0;1,741094838E0
4,550192208E0;-6,156506317E-1;-4,319050227E-1;2,095595312E0;2,226451742E0
4,560164208E0;-6,243189096E-1;-3,917161594E-1;2,592817388E0;2,695536618E0
4,570136208E0;-6,145835149E-1;-4,765542883E-1;3,062124857E0;3,159339413E0
4,580108208E0;-4,794802716E-1;-7,667544517E-1;3,353467639E0;3,473263440E0
4,590080208E0;-3,482937127E-1;-9,951330272E-1;3,307944726E0;3,471901002E0
4,600052208E0;-9,715770073E-3;-1,082735062E0;3,015002146E0;3,203536725E0
4,610023208E0;4,551266184E-1;-1,076160160E0;2,379523825E0;2,650923342E0
4,619995208E0;9,731725663E-1;-1,070609106E0;1,407764531E0;2,018680182E0
4,629967208E0;1,376118961E0;-1,056035067E0;2,917667055E-1;1,758988706E0
4,639939208E0;1,445192558E0;-9,984872094E-1;-8,905648577E-1;1,969432406E0
4,649911208E0;1,237175669E0;-8,615938045E-1;-1,873366034E0;2,404672081E0
4,659883208E0;8,684762697E-1;-7,832599720E-1;-2,266501824E0;2,550446575E0
4,669854208E0;4,262653101E-1;-8,192207868E-1;-2,278305598E0;2,458353354E0
4,679826208E0;1,975255229E-2;-7,945427594E-1;-2,200269243E0;2,339417257E0
4,689798208E0;-2,701047632E-1;-7,121765408E-1;-2,066776140E0;2,202661032E0
4,699770208E0;-5,806624281E-1;-6,360908166E-1;-1,733987709E0;1,936102724E0
4,709742208E0;-8,494773504E-1;-6,054408085E-1;-1,190211856E0;1,582647972E0
4,719714208E0;-7,558018859E-1;-6,839569279E-1;-6,731887686E-1;1,221563215E0
4,729686208E0;-4,170223971E-1;-8,381563369E-1;-3,534717876E-1;1,000677785E0
4,739657208E0;-2,270127756E-1;-9,545608058E-1;-1,644821763E-1;9,948746245E-1
4,749629208E0;-5,724446051E-2;-9,356821930E-1;-2,827479601E-2;9,378579629E-1
4,759601208E0;2,585434109E-2;-7,385360813E-1;1,014696568E-1;7,459223027E-1
4,769573208E0;-3,388455989E-2;-4,595728412E-1;6,895036697E-2;4,659501184E-1
4,779545208E0;-1,595234999E-1;-2,324973177E-1;-9,130251825E-2;2,963762804E-1
4,789517208E0;-1,965269646E-1;-1,495321980E-1;-2,372741640E-1;3,424642389E-1
4,799489208E0;-1,681669820E-1;-9,152200811E-2;-3,611006498E-1;4,087176178E-1
4,809460208E0;-1,537236650E-1;-1,383681457E-2;-3,919072902E-1;4,212051124E-1
4,819432208E0;-1,727070160E-1;1,033601347E-1;-3,276048750E-1;3,844944537E-1
4,829404208E0;-2,481286427E-1;1,780865641E-1;-2,625721425E-1;4,027738542E-1
4,839376208E0;-2,689196971E-1;1,742382556E-1;-2,096811533E-1;3,829398899E-1
4,849348208E0;-1,981951021E-1;1,465588523E-1;-1,824740589E-1;3,066880791E-1
4,859320208E0;-1,183889773E-1;1,694834460E-1;-2,403533077E-1;3,170335960E-1
4,869292208E0;-1,070390658E-1;2,253213588E-1;-3,602960730E-1;4,382240711E-1
4,879263208E0;-1,192346948E-1;2,592425917E-1;-4,838354605E-1;5,617120140E-1
4,889235208E0;-1,396154573E-1;2,787678700E-1;-6,034554595E-1;6,792366987E-1
4,899207208E0;-1,339257967E-1;2,940945186E-1;-6,837418234E-1;7,562609246E-1
4,909179208E0;-1,078986339E-1;3,372960502E-1;-6,929389089E-1;7,781870419E-1
4,919151208E0;-1,099110628E-1;3,993448023E-1;-6,416336846E-1;7,637083855E-1
4,929123208E0;-1,060350166E-1;4,575230997E-1;-6,061820161E-1;7,668294779E-1
4,939095208E0;-4,205708530E-2;4,398452127E-1;-6,293095082E-1;7,689363216E-1
4,949066208E0;-1,235123808E-2;4,039289098E-1;-6,271279120E-1;7,460566569E-1
4,959038208E0;3,993940651E-2;4,071005492E-1;-5,755016756E-1;7,060652887E-1
4,969010208E0;8,959226249E-2;4,656229552E-1;-4,389779609E-1;6,461680587E-1
4,978982208E0;1,106116506E-1;5,652915234E-1;-2,377986592E-1;6,231674302E-1
4,988954208E0;1,197341110E-1;6,282616872E-1;-7,462392032E-2;6,439081723E-1
4,998926208E0;1,503847769E-1;6,570382474E-1;4,389680207E-2;6,754567113E-1
5,008897208E0;2,005758143E-1;6,509714688E-1;1,363038594E-1;6,946749258E-1
5,018869208E0;2,640495694E-1;6,468393146E-1;1,455477226E-1;7,136577706E-1
5,028841208E0;3,195337439E-1;6,333747849E-1;7,394330442E-2;7,132552446E-1
5,038813208E0;2,973015337E-1;6,633052931E-1;4,194090843E-2;7,280941928E-1
5,048785208E0;2,425372062E-1;7,576485097E-1;-3,739002049E-2;7,964003856E-1
5,058757208E0;1,655835542E-1;8,640976553E-1;-8,679840803E-2;8,840908522E-1
5,068729208E0;4,366209118E-2;9,116531333E-1;-6,870127559E-2;9,152801096E-1
5,078700208E0;-6,727749685E-2;9,073718751E-1;9,471904635E-3;9,099119179E-1
5,088672208E0;-1,013695963E-1;8,685953336E-1;1,002411568E-1;8,802169836E-1
5,098644208E0;-1,005147700E-1;7,886932779E-1;1,735506231E-1;8,137936620E-1
5,108616208E0;-1,082950386E-1;6,674954809E-1;3,268289495E-1;7,510627102E-1
5,118588208E0;-1,099943491E-1;5,588108716E-1;4,992890668E-1;7,574020856E-1
5,128560208E0;-5,813839015E-2;4,410180545E-1;5,827188939E-1;7,331018388E-1
5,138532208E0;-1,241926678E-2;3,533427103E-1;5,523414391E-1;6,558097090E-1
5,148503208E0;-3,815790609E-2;3,758968098E-1;2,884940189E-1;4,753769413E-1
5,158475208E0;8,471117131E-3;2,776952349E-1;2,281086534E-1;3,594717806E-1
5,168447208E0;3,182127848E-3;-4,968444921E-2;7,638714820E-1;7,654922021E-1
5,178419208E0;-1,750468525E-1;-1,496731525E-1;1,378845956E0;1,397948363E0
5,188391208E0;-3,967674959E-1;-5,765500814E-3;1,986915454E0;2,026151699E0
5,198363208E0;-4,890682800E-1;7,372074477E-2;2,351315687E0;2,402770899E0
5,208335208E0;-3,369537323E-1;-1,460818657E-1;2,534466269E0;2,560936742E0
5,218306208E0;-3,183154766E-2;-5,853070177E-1;2,624918602E0;2,689571568E0
5,228278208E0;2,107955230E-1;-9,676717982E-1;2,436010267E0;2,629632956E0
5,238250208E0;3,509689600E-1;-1,222612228E0;2,000014971E0;2,370236223E0
5,248222208E0;3,363566950E-1;-1,272965160E0;1,472245871E0;1,975116206E0
5,258194208E0;2,063184927E-1;-1,151651734E0;8,997362155E-1;1,475938446E0
5,268166208E0;5,909086503E-2;-1,013970417E0;4,580527478E-1;1,114199290E0
5,278138208E0;1,386725664E-2;-9,371291596E-1;7,985717833E-2;9,406277327E-1
5,288109208E0;2,805998392E-2;-9,010876532E-1;-4,100342435E-1;9,903910350E-1
5,298081208E0;3,500004418E-2;-8,669539471E-1;-7,251792866E-1;1,130804646E0
5,308053208E0;-8,930657119E-2;-8,420899051E-1;-7,384969050E-1;1,123596347E0
5,318025208E0;-2,279959849E-1;-8,577325957E-1;-6,474990267E-1;1,098609286E0
5,327997208E0;-3,980654316E-1;-8,719843798E-1;-4,257568216E-1;1,048847805E0
5,337969208E0;-4,822069379E-1;-8,462080260E-1;-1,624830133E-1;9,874169756E-1
5,347940208E0;-4,562511476E-1;-9,173850127E-1;8,986351848E-2;1,028511460E0
5,357912208E0;-3,980396307E-1;-1,186912784E0;4,644718212E-1;1,335264609E0
5,367884208E0;-3,513943815E-1;-1,502966411E0;1,015797599E0;1,847763731E0
5,377856208E0;-3,472665031E-1;-1,664028258E0;1,579424749E0;2,320380703E0
5,387828208E0;-3,053526745E-1;-1,582326722E0;1,925434320E0;2,510835604E0
5,397800208E0;-1,757891748E-1;-1,327384904E0;1,912400876E0;2,334551269E0
5,407772208E0;9,305057991E-3;-1,151008614E0;1,615758762E0;1,983830585E0
5,417743208E0;1,655942254E-1;-1,216828235E0;1,293360248E0;1,783500248E0
5,427715208E0;1,884233450E-1;-1,317010628E0;1,007305103E0;1,668737223E0
5,437687208E0;1,579461404E-1;-1,164443688E0;6,745728046E-1;1,354962935E0
5,447659208E0;1,600206229E-1;-7,998058382E-1;1,303806299E-1;8,260115539E-1
5,457631208E0;1,012105521E-1;-4,116884208E-1;-6,487830752E-1;7,750163936E-1
5,467603208E0;-8,781728536E-2;-1,427931724E-1;-1,360399745E0;1,370689327E0
5,477575208E0;-2,987414836E-1;6,557118796E-2;-1,911761191E0;1,936072547E0
5,487550042E0;-4,976724578E-1;3,214343814E-1;-2,274696697E0;2,350583545E0
5,497521042E0;-6,573494654E-1;6,243765047E-1;-2,428957356E0;2,592641158E0
5,507493042E0;-7,585698847E-1;8,852558052E-1;-2,548960932E0;2,802910620E0
5,517465042E0;-8,177507968E-1;1,043086408E0;-2,609818168E0;2,927096939E0
5,527437042E0;-8,825513218E-1;1,144248721E0;-2,569269481E0;2,947769943E0
5,537409042E0;-9,728633948E-1;1,198107717E0;-2,476267762E0;2,917846349E0
5,547381042E0;-1,089025935E0;1,167041752E0;-2,276485360E0;2,780350613E0
5,557352042E0;-1,199067756E0;1,112937466E0;-2,072608738E0;2,640473493E0
5,567324042E0;-1,199399586E0;1,008255714E0;-1,811963838E0;2,395485734E0
5,577296042E0;-1,081576436E0;8,532890041E-1;-1,491224763E0;2,030187431E0
5,587268042E0;-1,021933375E0;7,795856548E-1;-1,138317232E0;1,716935566E0
5,597240042E0;-1,005196524E0;8,556347609E-1;-7,743192869E-1;1,530392516E0
5,607212042E0;-1,014842091E0;9,110408568E-1;-5,058052039E-1;1,454557945E0
5,617184042E0;-9,695390334E-1;8,372197592E-1;-3,434367961E-1;1,326232142E0
5,627155042E0;-8,554586135E-1;6,827974981E-1;-2,700764591E-1;1,127370018E0
5,637127042E0;-7,108816018E-1;5,453123550E-1;-2,081848508E-1;9,198147359E-1
5,647099042E0;-6,584188481E-1;4,873177698E-1;-4,432423353E-2;8,203405549E-1
5,657071042E0;-6,167072967E-1;4,859310295E-1;1,189656955E-1;7,941093703E-1
5,667043042E0;-5,497425710E-1;4,477252494E-1;2,437487859E-1;7,497254591E-1
5,677015042E0;-5,296595049E-1;3,832555307E-1;3,931860763E-1;7,629018833E-1
5,686987042E0;-4,901146393E-1;3,048693656E-1;5,621770406E-1;8,057299266E-1
5,696958042E0;-4,253993375E-1;2,645704284E-1;6,947766888E-1;8,565493303E-1
5,706930042E0;-3,807099819E-1;2,489354854E-1;7,235327107E-1;8,546394267E-1
5,716902042E0;-3,049901289E-1;1,987646209E-1;7,316521543E-1;8,172155335E-1
5,726874042E0;-2,442665203E-1;1,167096935E-1;7,911651152E-1;8,361994529E-1
5,736846042E0;-1,444922545E-1;5,851286776E-2;8,236984384E-1;8,383202757E-1
5,746818042E0;-5,401283232E-2;7,457853131E-2;8,108380723E-1;8,160500738E-1
5,756790042E0;-1,205968129E-2;7,234138660E-2;8,010714680E-1;8,044216612E-1
5,766761042E0;3,197146056E-2;3,027841754E-2;7,676809430E-1;7,689427723E-1
5,776733042E0;1,371263433E-1;1,276893027E-2;6,931681198E-1;7,067168612E-1
5,786705042E0;2,338839118E-1;-2,138692215E-2;5,920340931E-1;6,369171469E-1
5,796677042E0;2,330891655E-1;-2,974507838E-2;3,724582815E-1;4,403867621E-1
5,806649042E0;1,697883783E-1;2,383705169E-2;6,243832290E-2;1,824687442E-1
5,816621042E0;1,805437103E-1;-9,761312574E-2;3,820781207E-1;4,337142423E-1
5,826593042E0;5,161519982E-3;-2,864303903E-1;9,699267769E-1;1,011349080E0
5,836564042E0;-9,278931901E-2;-2,713321486E-1;1,140753767E0;1,176244086E0
5,846536042E0;-7,024552524E-3;-2,713147531E-1;1,411451200E0;1,437308433E0
5,856508042E0;5,060465934E-2;-4,053352748E-1;1,755131240E0;1,802038620E0
5,866480042E0;1,404258540E-1;-5,991225265E-1;2,120365872E0;2,207853857E0
5,876452042E0;1,804187260E-1;-6,731807287E-1;2,503915737E0;2,599099311E0
5,886424042E0;1,888625257E-1;-6,284875359E-1;2,756813076E0;2,833846145E0
5,896396042E0;3,220662461E-1;-5,710705094E-1;2,769340736E0;2,845891126E0
5,906367042E0;5,309455634E-1;-5,732452351E-1;2,475108259E0;2,595510390E0
5,916339042E0;7,728154562E-1;-6,173200849E-1;1,862334677E0;2,108700611E0
5,926311042E0;1,138379651E0;-7,327985740E-1;1,039718558E0;1,707019818E0
5,936283042E0;1,388467550E0;-9,236112010E-1;6,230792999E-2;1,668766630E0
5,946255042E0;1,283852237E0;-1,055596818E0;-8,629753554E-1;1,872775393E0
5,956227042E0;8,806876680E-1;-1,077417458E0;-1,354038559E0;1,941612620E0
5,966199042E0;4,526622728E-1;-9,453275406E-1;-1,290719646E0;1,662679914E0
5,976170042E0;-1,418278702E-3;-6,084975135E-1;-9,440282893E-1;1,123147651E0
5,986142042E0;-4,716145240E-1;-1,734325093E-1;-6,006563973E-1;7,831265557E-1
5,996114042E0;-6,389390684E-1;7,351368025E-2;-3,452985495E-1;7,299852619E-1
6,006086042E0;-3,948759947E-1;-1,558546096E-2;-2,203739566E-1;4,524761193E-1
6,016058042E0;-4,020770235E-2;-2,633922145E-1;-1,629437739E-1;3,123184135E-1
6,026030042E0;1,264727347E-1;-3,994335338E-1;2,027229667E-3;4,189828281E-1
6,036002042E0;1,948696079E-1;-3,524252822E-1;3,794609070E-2;4,044967854E-1
6,045973042E0;3,039802234E-1;-2,830689722E-1;-5,277579904E-2;4,187090926E-1
6,055945042E0;3,264651795E-1;-2,154180028E-1;-2,341722161E-1;4,558739476E-1
6,065917042E0;2,015587129E-1;-1,002049041E-1;-4,699173331E-1;5,210462912E-1
6,075889042E0;1,827629479E-2;4,998886988E-2;-6,759895849E-1;6,780817274E-1
6,085861042E0;-1,034054872E-1;2,284846294E-1;-8,628695208E-1;8,985776152E-1
6,095833042E0;-1,535213513E-1;3,813093580E-1;-1,030998605E0;1,109920608E0
6,105805042E0;-2,009125591E-1;5,070888139E-1;-1,168447934E0;1,289486525E0
6,115776042E0;-2,285012940E-1;5,198757975E-1;-1,255161558E0;1,377648076E0
6,125748042E0;-2,150245034E-1;4,335710406E-1;-1,359795143E0;1,443351037E0
6,135720042E0;-2,076299500E-1;3,317838800E-1;-1,390985361E0;1,445002081E0
6,145692042E0;-1,972385525E-1;3,017742151E-1;-1,279639172E0;1,329453698E0
6,155664042E0;-1,731848432E-1;3,759291887E-1;-1,157316005E0;1,229103771E0
6,165636042E0;-1,122993580E-1;4,474467757E-1;-1,082506143E0;1,176706979E0
6,175608042E0;-7,108226180E-2;4,681098126E-1;-1,004819452E0;1,110784234E0
6,185579042E0;-3,875742842E-2;4,548530053E-1;-9,700840670E-1;1,072127087E0
6,195551042E0;4,326281771E-3;4,461152185E-1;-9,483546442E-1;1,048052497E0
6,205523042E0;2,278996155E-2;4,741330294E-1;-8,121940416E-1;9,407341140E-1
6,215495042E0;6,857599899E-2;4,835642959E-1;-6,606774813E-1;8,216032073E-1
6,225467042E0;1,747322723E-1;4,617345934E-1;-6,058610040E-1;7,815355128E-1
6,235439042E0;2,301411456E-1;4,376018187E-1;-5,490833706E-1;7,388862203E-1
6,245411042E0;2,197421649E-1;4,660412139E-1;-4,177484751E-1;6,633210539E-1
6,255383042E0;2,431408216E-1;5,183811030E-1;-3,050416392E-1;6,487579123E-1
6,265354042E0;2,785746926E-1;5,141478650E-1;-2,486323804E-1;6,354289473E-1
6,275326042E0;3,172043594E-1;4,655111638E-1;-9,712049782E-2;5,716219383E-1
6,285298042E0;2,816492683E-1;4,335654858E-1;7,438418448E-2;5,223393032E-1
6,295270042E0;2,085210657E-1;4,619499171E-1;2,554946727E-1;5,675881328E-1
6,305242042E0;1,786425977E-1;4,317933409E-1;4,782478613E-1;6,686401751E-1
6,315214042E0;1,775281184E-1;3,704149720E-1;6,600307792E-1;7,774085888E-1
6,325186042E0;1,681828060E-1;3,379854369E-1;7,493896830E-1;8,391093545E-1
6,335157042E0;1,205017591E-1;2,976487121E-1;7,776773429E-1;8,413664359E-1
6,345129042E0;9,356049366E-2;2,207787301E-1;6,747260016E-1;7,160670296E-1
6,355101042E0;9,799034424E-2;1,215060183E-1;5,442570788E-1;5,661992475E-1
6,365073042E0;-8,084287271E-3;7,385618091E-2;4,957883388E-1;5,013244140E-1
6,375045042E0;-1,606423098E-1;6,563645750E-2;4,512740707E-1;4,834897963E-1
6,385017042E0;-2,821880892E-1;8,590670764E-2;4,813919091E-1;5,645779399E-1
6,394989042E0;-3,704615305E-1;1,270064941E-1;5,019238222E-1;6,366316976E-1
6,404960042E0;-4,375663700E-1;1,366853902E-1;3,122728908E-1;5,546725001E-1
6,414932042E0;-3,503076399E-1;1,592065260E-2;2,611530232E-1;4,372297009E-1
6,424904042E0;-2,841262950E-1;-1,983296612E-1;6,508044577E-1;7,372983440E-1
6,434876042E0;-4,104450104E-1;-2,368556495E-1;1,114427848E0;1,210997578E0
6,444848042E0;-4,584112553E-1;-7,561750844E-2;1,482430551E0;1,553531212E0
6,454820042E0;-4,289523615E-1;4,003983244E-2;1,652895598E0;1,708118022E0
6,464792042E0;-3,362583156E-1;-1,009014536E-1;1,797653947E0;1,831614171E0
6,474763042E0;-3,315441076E-1;-3,465539467E-1;2,005835289E0;2,062376382E0
6,484735042E0;-3,130055835E-1;-4,458811837E-1;2,115348961E0;2,184372622E0
6,494707042E0;-1,601945958E-1;-4,544634345E-1;2,040573598E0;2,096697386E0
6,504679042E0;3,575601608E-2;-5,285255836E-1;1,887282992E0;1,960218069E0
6,514651042E0;9,301239029E-2;-6,495759577E-1;1,629795004E0;1,756938241E0
6,524623042E0;6,676807646E-2;-7,109752303E-1;1,383479290E0;1,556906773E0
6,534595042E0;6,465434454E-2;-6,618254359E-1;9,897014755E-1;1,192351501E0
6,544566042E0;1,634038036E-1;-6,012957904E-1;4,281781536E-1;7,560383335E-1
6,554538042E0;2,422991880E-1;-5,991133171E-1;-1,369435447E-1;6,606051754E-1
6,564510042E0;1,495215634E-1;-5,551443020E-1;-6,151662630E-1;8,420044092E-1
6,574482042E0;1,442102451E-2;-4,574316274E-1;-1,077788025E0;1,170930693E0
6,584454042E0;-3,873809606E-2;-3,912101559E-1;-1,489463582E0;1,540469989E0
6,594426042E0;-1,348071914E-1;-3,626681422E-1;-1,721103369E0;1,764057246E0
6,604398042E0;-2,680344652E-1;-3,393378979E-1;-1,774700702E0;1,826624007E0
6,614369042E0;-5,090144482E-1;-2,497587003E-1;-1,693435514E0;1,785832847E0
6,624341042E0;-7,013322946E-1;-1,621117151E-1;-1,500688482E0;1,664395721E0
6,634313042E0;-8,099283186E-1;-1,235541518E-1;-1,209018255E0;1,460470695E0
6,644285042E0;-8,537759310E-1;-1,884573685E-1;-8,788236487E-1;1,239669523E0
6,654257042E0;-7,788125798E-1;-3,117516115E-1;-5,491424274E-1;1,002644258E0
6,664229042E0;-5,973294778E-1;-4,995404971E-1;-1,427498299E-1;7,916569505E-1
6,674201042E0;-5,133796140E-1;-6,855072440E-1;3,202438152E-1;9,143494468E-1
6,684173042E0;-5,070174048E-1;-8,249678689E-1;6,976587814E-1;1,193468227E0
6,694144042E0;-5,368216863E-1;-8,747630498E-1;9,178491354E-1;1,376893224E0
6,704116042E0;-5,419769570E-1;-8,893550688E-1;9,845869160E-1;1,433214169E0
6,714088042E0;-5,530696367E-1;-8,954790039E-1;8,933446240E-1;1,380519209E0
6,724060042E0;-6,204628902E-1;-8,820089194E-1;7,229281086E-1;1,298283090E0
6,734032042E0;-7,111478694E-1;-8,131692110E-1;5,078026128E-1;1,193666181E0
6,744004042E0;-7,835456085E-1;-7,144961312E-1;2,531154406E-1;1,090190749E0
6,753976042E0;-8,310914386E-1;-6,060829058E-1;7,721248269E-3;1,028644295E0
6,763947042E0;-8,807402929E-1;-5,048461144E-1;-1,813607490E-1;1,031244289E0
6,773919042E0;-8,651473036E-1;-3,901366071E-1;-3,862524480E-1;1,024635244E0
6,783891042E0;-8,843616197E-1;-2,337889311E-1;-5,766775507E-1;1,081346261E0
6,793863042E0;-9,428258094E-1;-1,140104726E-1;-7,274977076E-1;1,196315932E0
6,803835042E0;-9,919687334E-1;-5,416962907E-2;-7,774136335E-1;1,261470679E0
6,813807042E0;-9,578205554E-1;1,077802643E-2;-7,982139337E-1;1,246868825E0
6,823779042E0;-8,504389981E-1;5,506293744E-2;-8,467972791E-1;1,201392546E0
6,833750042E0;-8,010583118E-1;7,104293928E-2;-8,864963651E-1;1,196919932E0
6,843722042E0;-7,927441558E-1;1,377051446E-1;-8,871383893E-1;1,197672963E0
6,853694042E0;-7,736298271E-1;2,212361285E-1;-9,123954374E-1;1,216517147E0
6,863666042E0;-7,285053290E-1;2,666070136E-1;-1,003565224E0;1,268440961E0
6,873638042E0;-7,207983334E-1;2,540086028E-1;-1,091895018E0;1,332781054E0
6,883610042E0;-7,601246593E-1;2,489890605E-1;-1,124140658E0;1,379665636E0
6,893582042E0;-7,699321210E-1;2,466551444E-1;-1,091623122E0;1,358409096E0
6,903554042E0;-8,111076289E-1;2,632020338E-1;-9,966421205E-1;1,311665511E0
6,913525042E0;-8,260653182E-1;2,483758338E-1;-8,677624708E-1;1,223554727E0
6,923497042E0;-8,371816061E-1;2,179279201E-1;-6,770859379E-1;1,098549492E0
6,933469042E0;-8,402072478E-1;2,257036936E-1;-4,029930264E-1;9,587980788E-1
6,943441042E0;-7,503581281E-1;2,407545729E-1;-1,281984490E-1;7,983952199E-1
6,953413042E0;-6,389056662E-1;1,907700884E-1;1,016889274E-1;6,744881873E-1
6,963385042E0;-5,915702993E-1;1,167912622E-1;2,786332744E-1;6,642530539E-1
6,973357042E0;-5,253979445E-1;3,739879131E-2;3,897759801E-1;6,552610047E-1
6,983328042E0;-4,607994409E-1;-3,457838684E-2;4,413694721E-1;6,390139282E-1
6,993300042E0;-4,729867924E-1;-1,208451368E-1;5,287718976E-1;7,196664314E-1
7,003272042E0;-4,859777342E-1;-1,881791872E-1;6,258631593E-1;8,144264600E-1
7,013244042E0;-4,764662147E-1;-2,245658255E-1;7,387705547E-1;9,073212199E-1
7,023216042E0;-4,953758543E-1;-2,507265607E-1;8,578485167E-1;1,021843982E0
7,033188042E0;-4,405881745E-1;-3,194111717E-1;8,656773537E-1;1,022515876E0
7,043160042E0;-3,344647187E-1;-3,880346793E-1;8,359395844E-1;9,804246780E-1
7,053131042E0;-3,228255802E-1;-3,532798527E-1;8,245421916E-1;9,533587128E-1
7,063103042E0;-4,421692616E-1;-1,963204117E-1;6,451712501E-1;8,064126127E-1
7,073075042E0;-3,913103260E-1;-1,673655845E-1;4,100745893E-1;5,910128416E-1
7,083047042E0;-1,989577435E-1;-4,800420794E-1;8,078349423E-1;9,605320795E-1
7,093019042E0;-1,974294093E-1;-6,030753905E-1;1,480882208E0;1,611114649E0
7,102991042E0;-3,615908292E-1;-4,467617744E-1;2,209821255E0;2,283342722E0
7,112963042E0;-6,260180374E-1;-1,132655373E-1;2,664831696E0;2,739718167E0
7,122935042E0;-7,250205347E-1;-1,431983113E-2;2,921725608E0;3,010372130E0
7,132906042E0;-5,147233772E-1;-3,718618655E-1;3,126420840E0;3,190255267E0
7,142878042E0;-3,416913291E-1;-7,278156500E-1;3,155193819E0;3,256027736E0
7,152850042E0;-1,742491461E-1;-8,099352622E-1;2,885473455E0;3,002051791E0
7,162822042E0;1,492626414E-1;-7,698112299E-1;2,379291106E0;2,505177605E0
7,172794042E0;4,569908204E-1;-7,652210194E-1;1,684139026E0;1,905446949E0
7,182766042E0;7,686427369E-1;-7,759037362E-1;7,576272404E-1;1,329224323E0
7,192738042E0;9,357926323E-1;-6,725707179E-1;-2,646291929E-1;1,182407642E0
7,202709042E0;8,619121854E-1;-4,375372070E-1;-1,072726091E0;1,443978077E0
7,212681042E0;8,253526888E-1;-2,815473805E-1;-1,468089670E0;1,707560619E0
7,222653042E0;7,264340991E-1;-2,393959723E-1;-1,570122414E0;1,746511187E0
7,232625042E0;3,635030515E-1;-1,138793488E-1;-1,432863119E0;1,482632690E0
7,242597042E0;-6,634415332E-2;1,364221193E-1;-1,164330910E0;1,174171627E0
7,252569042E0;-3,633467846E-1;3,610034399E-1;-8,546214384E-1;9,963544412E-1
7,262541042E0;-2,881499468E-1;3,549973261E-1;-5,564578789E-1;7,202075149E-1
7,272513042E0;9,226106876E-2;1,403429697E-1;-3,314967817E-1;3,716158907E-1
7,282484042E0;3,824810670E-1;-4,513465762E-2;-1,636928022E-1;4,184784790E-1
7,292456042E0;5,432687166E-1;-1,144020899E-1;-2,181946993E-2;5,556121182E-1
7,302428042E0;6,617114152E-1;-4,399810508E-2;2,535586596E-2;6,636571029E-1
7,312400042E0;6,678075761E-1;1,048269819E-1;1,010515809E-2;6,760604773E-1
7,322372042E0;6,104595102E-1;2,284036455E-1;-7,568928301E-2;6,561691142E-1
7,332344042E0;4,833014270E-1;3,093367115E-1;-2,393551880E-1;6,217397980E-1
7,342316042E0;2,899204472E-1;3,771557884E-1;-3,816325629E-1;6,098719271E-1
7,352287042E0;1,206918301E-1;4,058625475E-1;-4,744647127E-1;6,359305693E-1
7,362259042E0;3,939704985E-2;3,805480506E-1;-5,863909453E-1;7,001594726E-1
7,372231042E0;9,934419394E-4;3,363278975E-1;-6,513190126E-1;7,330306254E-1
7,382203042E0;-7,757221436E-2;2,820654438E-1;-6,830471742E-1;7,430557215E-1
7,392175042E0;-1,703108270E-1;2,205002564E-1;-7,109641206E-1;7,636073086E-1
7,402147042E0;-2,132664101E-1;2,085438699E-1;-7,115371478E-1;7,715297920E-1
7,412119042E0;-1,483281102E-1;1,935464926E-1;-7,247775829E-1;7,646986450E-1
7,422091042E0;-3,818246439E-2;1,545838635E-1;-7,953996688E-1;8,111810554E-1
7,432062042E0;2,428144008E-2;1,469626026E-1;-8,882113534E-1;9,006147918E-1
7,442034042E0;2,499469075E-2;1,817422798E-1;-9,692584401E-1;9,864668847E-1
7,452006042E0;1,303322442E-2;2,564620945E-1;-1,064421290E0;1,094959065E0
7,461978042E0;1,437040955E-2;3,206816255E-1;-1,141926134E0;1,186186540E0
7,471950042E0;2,515877824E-2;3,563671826E-1;-1,132161283E0;1,187189835E0
7,481922917E0;3,009883493E-2;3,870866995E-1;-1,089484795E0;1,156598103E0
7,491894917E0;5,788264755E-2;4,363598701E-1;-1,034761873E0;1,124496542E0
7,501865917E0;6,552627403E-2;4,906916133E-1;-8,802568012E-1;1,009912862E0
7,511837917E0;5,116602402E-2;5,496525970E-1;-6,786857361E-1;8,748429961E-1
7,521809917E0;1,152891856E-1;5,462786074E-1;-5,428046304E-1;7,786840052E-1
7,531781917E0;2,604118521E-1;4,689385092E-1;-4,362017030E-1;6,913679077E-1
7,541753917E0;3,027167863E-1;3,878262261E-1;-2,298674959E-1;5,430337927E-1
7,551725917E0;2,620752753E-1;3,486033958E-1;2,602010965E-2;4,369036777E-1
7,561697917E0;2,927576989E-1;3,372603822E-1;2,140858608E-1;4,952619423E-1
7,571669917E0;3,514701760E-1;2,776731616E-1;2,991628486E-1;5,386390993E-1
7,581640917E0;3,548003481E-1;1,724490076E-1;3,568736976E-1;5,319593812E-1
7,591612917E0;3,186067044E-1;6,372237146E-2;4,325302362E-1;5,409742859E-1
7,601584917E0;3,005190372E-1;-1,434205055E-2;4,353772455E-1;5,292170935E-1
7,611556917E0;2,451407155E-1;-6,092155516E-2;4,614189899E-1;5,260350659E-1
7,621528917E0;1,193330103E-1;-6,451423064E-2;5,303582472E-1;5,474324832E-1
7,631500917E0;3,743767530E-2;-7,200305209E-2;5,995249611E-1;6,049927256E-1
7,641472917E0;4,328456204E-2;-1,192270660E-1;6,473774046E-1;6,596864032E-1
7,651443917E0;5,846119300E-2;-1,578208821E-1;7,230848140E-1;7,424128165E-1
7,661415917E0;3,728743840E-2;-1,412902187E-1;7,425835240E-1;7,568246620E-1
7,671387917E0;-6,374988992E-2;-6,761603236E-2;5,107203734E-1;5,191062281E-1
7,681359917E0;-1,347308122E-3;-1,725095263E-1;5,305517900E-1;5,578947515E-1
7,691331917E0;4,825034648E-2;-3,747351873E-1;9,706559247E-1;1,041598522E0
7,701303917E0;3,274115514E-2;-3,156996515E-1;1,517379359E0;1,550218814E0
7,711275917E0;-5,010884743E-2;-3,989321351E-2;2,007903450E0;2,008924744E0
7,721247917E0;-2,008220003E-1;1,968666878E-1;2,194807944E0;2,212751201E0
7,731218917E0;-2,154947109E-1;1,323284836E-1;2,437917044E0;2,450997412E0
7,741190917E0;-1,205008454E-1;-1,056567018E-1;2,739216465E0;2,743900624E0
7,751162917E0;-3,873720070E-2;-1,513380741E-1;2,883359102E0;2,887587833E0
7,761134917E0;1,778372169E-2;5,151689351E-3;2,879997538E0;2,880057051E0
7,771106917E0;2,023264524E-2;1,656804170E-1;2,603603747E0;2,608948415E0
7,781078917E0;1,079320727E-1;2,130244450E-1;2,036387576E0;2,050342192E0
7,791050917E0;2,817745997E-1;1,742280230E-1;1,299520875E0;1,341084200E0
7,801022917E0;4,015711663E-1;1,887316029E-1;4,111896533E-1;6,049429316E-1
7,810993917E0;4,142644482E-1;2,783036377E-1;-5,715074426E-1;7,587415269E-1
7,820965917E0;3,162668315E-1;3,049282032E-1;-1,341817878E0;1,411906915E0
7,830937917E0;2,553665455E-1;2,165330668E-1;-1,920488160E0;1,949454646E0
7,840909917E0;2,934659064E-2;5,033575594E-2;-2,225833270E0;2,226595755E0
7,850881917E0;-3,392907913E-1;-2,855253875E-2;-2,298169760E0;2,323255847E0
7,860853917E0;-7,228227125E-1;4,880802467E-2;-2,280148056E0;2,392473627E0
7,870825917E0;-1,092129345E0;2,729113354E-1;-2,125823078E0;2,405483499E0
7,880796917E0;-1,291006744E0;4,415155064E-1;-1,861575124E0;2,308050324E0
7,890768917E0;-1,356604317E0;4,176765543E-1;-1,571508788E0;2,117656452E0
7,900740917E0;-1,246762471E0;2,204739439E-1;-1,152210217E0;1,711903561E0
7,910712917E0;-9,039187288E-1;-1,065817313E-1;-5,994565487E-1;1,089851773E0
7,920684917E0;-7,006164493E-1;-4,076421475E-1;-1,057843173E-1;8,174508250E-1
7,930656917E0;-6,190254253E-1;-5,996215864E-1;4,495216602E-1;9,720124727E-1
7,940628917E0;-5,708481690E-1;-7,273332547E-1;1,083155769E0;1,424116468E0
7,950600917E0;-6,191460241E-1;-8,425098082E-1;1,579907144E0;1,894537189E0
7,960571917E0;-6,393545862E-1;-9,548371598E-1;1,866418957E0;2,191804739E0
7,970543917E0;-6,022865280E-1;-1,070654568E0;1,902662923E0;2,264768524E0
7,980515917E0;-5,244824532E-1;-1,245320986E0;1,691583701E0;2,165031552E0
7,990487917E0;-4,478153330E-1;-1,434538785E0;1,332567583E0;2,008525943E0
8,000459917E0;-3,764860629E-1;-1,528809058E0;9,900055307E-1;1,859868232E0
8,010431917E0;-3,455228268E-1;-1,485167048E0;6,467593539E-1;1,656322688E0
8,020403917E0;-4,047688258E-1;-1,323642393E0;2,578668880E-1;1,407963891E0
8,030375917E0;-5,207384080E-1;-1,102197373E0;-1,003083998E-1;1,223139123E0
8,040346917E0;-5,722760225E-1;-9,132918155E-1;-4,584433419E-1;1,171226743E0
8,050318917E0;-4,502185752E-1;-7,481983128E-1;-8,507020497E-1;1,219094524E0
8,060290917E0;-3,518119823E-1;-6,375445805E-1;-1,155486411E0;1,365790471E0
8,070262917E0;-3,146213519E-1;-4,938451628E-1;-1,330301787E0;1,453469121E0
8,080234917E0;-2,732726933E-1;-3,221467915E-1;-1,513403837E0;1,571256725E0
8,090206917E0;-2,182524405E-1;-1,845561062E-1;-1,675824285E0;1,700024152E0
8,100178917E0;-1,742231259E-1;-5,897940248E-2;-1,767430859E0;1,776976113E0
8,110149917E0;-1,703577510E-1;9,616360098E-2;-1,829725340E0;1,840153260E0
8,120121917E0;-1,828146957E-1;2,361541298E-1;-1,853876680E0;1,877777604E0
8,130093917E0;-1,433636779E-1;3,431479436E-1;-1,900810525E0;1,936849067E0
8,140065917E0;-9,581627637E-2;4,062135266E-1;-1,914806421E0;1,959763715E0
8,150037917E0;-1,430220178E-1;4,723084058E-1;-1,802708865E0;1,869034451E0
8,160009917E0;-2,641266248E-1;5,924970464E-1;-1,578126082E0;1,706252489E0
8,169981917E0;-3,276107587E-1;6,547266237E-1;-1,364210960E0;1,548246526E0
8,179953917E0;-2,660085511E-1;5,811568102E-1;-1,198230143E0;1,358035074E0
8,189924917E0;-1,863929359E-1;5,092193931E-1;-9,769738412E-1;1,117373976E0
8,199896917E0;-1,939672729E-1;5,129488935E-1;-7,585265422E-1;9,360034110E-1
8,209868917E0;-2,531246865E-1;5,776535971E-1;-4,850323856E-1;7,956206384E-1
8,219840917E0;-2,766744572E-1;5,661939315E-1;-1,788283199E-1;6,550602197E-1
8,229812917E0;-2,286015006E-1;4,893800828E-1;6,458892882E-2;5,439882731E-1
8,239784917E0;-1,856421169E-1;4,574212486E-1;3,166238040E-1;5,864706535E-1
8,249756917E0;-1,422614412E-1;4,193435955E-1;6,127852768E-1;7,560378060E-1
8,259728917E0;-9,855840124E-2;3,160044377E-1;8,465388322E-1;9,089557511E-1
8,269699917E0;-4,090072531E-2;1,915123925E-1;1,080218128E0;1,097825610E0
8,279671917E0;-4,057342742E-2;1,040073484E-1;1,342615439E0;1,347249030E0
8,289643917E0;-7,435063608E-2;3,670765042E-2;1,548964849E0;1,551182636E0
8,299615917E0;-1,033150381E-1;-5,909839332E-2;1,662368672E0;1,666624199E0
8,309587917E0;-2,138652015E-2;-1,328135101E-1;1,693699808E0;1,699033799E0
8,319559917E0;-6,928110011E-3;-1,415428184E-1;1,591870548E0;1,598165889E0
8,329531917E0;-7,025184754E-2;-1,362069418E-1;1,346814324E0;1,355505986E0
8,339503917E0;-1,913764447E-2;-2,919125935E-1;1,298876511E0;1,331412560E0
8,349474917E0;4,606984667E-3;-5,650477311E-1;1,656319728E0;1,750055772E0
8,359446917E0;2,597139504E-2;-5,458614086E-1;2,024134735E0;2,096606930E0
8,369418917E0;-7,160229854E-2;-2,813025284E-1;2,348371614E0;2,366243276E0
8,379390917E0;-2,669445076E-1;-6,147250906E-2;2,557934069E0;2,572559998E0
8,389362917E0;-3,244876512E-1;-1,373719995E-1;2,727244876E0;2,749914165E0
8,399334917E0;-1,530177233E-1;-4,068150589E-1;2,878404756E0;2,911035358E0
8,409306917E0;-3,938377485E-2;-5,057455623E-1;2,778590446E0;2,824516688E0
8,419277917E0;-4,300670967E-2;-4,302726263E-1;2,519413782E0;2,556253100E0
8,429249917E0;4,697229132E-2;-3,890874705E-1;2,138506274E0;2,174121556E0
8,439221917E0;2,438365306E-1;-4,462915852E-1;1,647780454E0;1,724474661E0
8,449193917E0;4,831701936E-1;-5,222896743E-1;9,574318618E-1;1,192860306E0
8,459165917E0;6,856524011E-1;-5,807742561E-1;5,625079930E-2;9,003233332E-1
8,469137917E0;7,594327144E-1;-6,576226035E-1;-9,304668421E-1;1,369296929E0
8,479109917E0;6,508381522E-1;-8,004377029E-1;-1,796768678E0;2,071875600E0
8,489077542E0;4,538378921E-1;-9,748504248E-1;-2,293552798E0;2,533117964E0
8,499048542E0;1,242756617E-1;-1,042307413E0;-2,365719718E0;2,588141992E0
8,509020542E0;-2,721416591E-1;-9,209914291E-1;-2,188122822E0;2,389595736E0
8,518992542E0;-5,917769253E-1;-6,626270892E-1;-1,928694727E0;2,123473084E0
8,528964542E0;-7,877165736E-1;-3,666850331E-1;-1,645702938E0;1,860992605E0
8,538936542E0;-8,026367676E-1;-9,837004781E-2;-1,224410466E0;1,467338896E0
8,548908542E0;-6,125695876E-1;2,545921549E-2;-8,006194782E-1;1,008405286E0
8,558880542E0;-3,447868816E-1;-5,647255495E-2;-4,977939337E-1;6,081660494E-1
8,568852542E0;-1,999550410E-1;-1,890675254E-1;-2,000969821E-1;3,402460137E-1
8,578823542E0;-7,430290818E-2;-2,401533329E-1;2,782514513E-2;2,529205096E-1
8,588795542E0;7,709773108E-2;-2,279414231E-1;1,283288419E-1;2,727079833E-1
8,598767542E0;1,690497836E-1;-2,125382490E-1;2,127813470E-1;3,450017946E-1
8,608739542E0;1,134785222E-1;-1,425217885E-1;2,507671988E-1;3,099580991E-1
8,618711542E0;-4,087541783E-2;-6,128802940E-2;1,997964352E-1;2,129451522E-1
8,628683542E0;-1,776493751E-1;-4,230314344E-2;2,484072626E-2;1,842984484E-1
8,638655542E0;-2,489706052E-1;-4,018674374E-2;-1,393999600E-1;2,881556619E-1
8,648627542E0;-2,624186531E-1;1,829652250E-2;-2,694204015E-1;3,765443731E-1
8,658599542E0;-2,520535862E-1;9,040036596E-2;-4,250282586E-1;5,023467498E-1
8,668570542E0;-2,573947985E-1;1,313558724E-1;-5,352862805E-1;6,083073644E-1
8,678542542E0;-2,583118246E-1;1,359885482E-1;-6,103142434E-1;6,765362959E-1
8,688514542E0;-2,314278985E-1;1,433729969E-1;-6,719041353E-1;7,249619683E-1
8,698486542E0;-2,283680871E-1;1,712617305E-1;-7,056858391E-1;7,612325972E-1
8,708458542E0;-2,333496590E-1;2,160785919E-1;-6,952584994E-1;7,645432638E-1
8,718430542E0;-2,067192462E-1;2,789129175E-1;-6,601459694E-1;7,458672558E-1
8,728402542E0;-1,477817975E-1;3,574246515E-1;-6,989615411E-1;7,988360765E-1
8,738374542E0;-3,957739078E-2;4,067296895E-1;-7,423092896E-1;8,473597179E-1
8,748345542E0;6,187318951E-2;4,398000795E-1;-7,295266914E-1;8,540852387E-1
8,758317542E0;1,082932844E-1;5,008567053E-1;-7,226269770E-1;8,858750603E-1
8,768289542E0;1,473709575E-1;5,691781311E-1;-6,886195707E-1;9,054716215E-1
8,778261542E0;1,786018865E-1;6,321645574E-1;-6,550273168E-1;9,276806817E-1
8,788233542E0;2,087526155E-1;6,755154488E-1;-5,813483065E-1;9,153494576E-1
8,798205542E0;2,630353151E-1;6,765381999E-1;-5,031388736E-1;8,831988672E-1
8,808177542E0;3,238594410E-1;6,280601775E-1;-3,990490794E-1;8,115323110E-1
8,818149542E0;3,522171944E-1;6,301652482E-1;-2,555326796E-1;7,658081629E-1
8,828120542E0;3,835768352E-1;6,618613232E-1;-1,043447328E-1;7,720617999E-1
8,838092542E0;4,303690322E-1;6,688314235E-1;-4,147488534E-2;7,964126714E-1
8,848064542E0;4,962935382E-1;6,282534280E-1;-2,131310105E-2;8,009144112E-1
8,858036542E0;5,423161686E-1;5,770431478E-1;-6,387498379E-3;7,919131400E-1
8,868008542E0;5,277977514E-1;5,771920326E-1;-1,661427855E-2;7,823024627E-1
8,877980542E0;4,530764750E-1;5,794244264E-1;-3,700761259E-2;7,364648814E-1
8,887952542E0;3,770409637E-1;5,864557763E-1;-1,196749628E-2;6,973044434E-1
8,897924542E0;3,189603513E-1;5,721309020E-1;5,196829855E-2;6,570922148E-1
8,907895542E0;2,906612163E-1;5,398620922E-1;1,858262676E-1;6,406765354E-1
8,917867542E0;2,689799599E-1;5,042727218E-1;3,406301326E-1;6,653345655E-1
8,927839542E0;2,093803871E-1;4,276462032E-1;4,905299377E-1;6,836234647E-1
8,937811542E0;1,484977891E-1;3,231354095E-1;6,095067430E-1;7,056674542E-1
8,947783542E0;1,158861132E-1;1,993197410E-1;5,758472461E-1;6,202886434E-1
8,957755542E0;8,107968494E-2;9,521240517E-2;4,177806348E-1;4,360962923E-1
8,967727542E0;9,793647677E-2;-4,909059137E-2;4,850119203E-1;4,972303314E-1
8,977699542E0;1,031080467E-1;-1,358302349E-1;7,599018073E-1;7,788015657E-1
8,987670542E0;3,451392129E-2;-9,421793997E-2;1,288783633E0;1,292683829E0
8,997642542E0;-2,407108650E-1;-2,535162672E-2;1,955459188E0;1,970381958E0
9,007614542E0;-4,985874740E-1;4,563020915E-2;2,503153260E0;2,552733403E0
9,017586542E0;-5,199893066E-1;-4,520877108E-2;2,935239108E0;2,981285181E0
9,027558542E0;-4,379571102E-1;-3,146106076E-1;3,264125108E0;3,308368024E0
9,037530542E0;-3,590321973E-1;-5,730150010E-1;3,415195525E0;3,481495481E0
9,047502542E0;-3,454482383E-1;-7,338878372E-1;3,342208241E0;3,439226914E0
9,057474542E0;-2,247771292E-1;-8,752302423E-1;3,071542382E0;3,201706629E0
9,067445542E0;-3,290739879E-2;-1,049745071E0;2,710900154E0;2,907237049E0
9,077417542E0;1,430313733E-1;-1,137043855E0;2,110585819E0;2,401645103E0
9,087389542E0;2,868717089E-1;-1,106636872E0;1,304872831E0;1,734829573E0
9,097361542E0;3,158448818E-1;-9,807808902E-1;5,065817142E-1;1,148178635E0
9,107333542E0;2,303199242E-1;-8,235437796E-1;-1,981662315E-1;8,778049212E-1
9,117305542E0;2,773126808E-1;-6,769418040E-1;-8,735915601E-1;1,139436151E0
9,127277542E0;3,538471788E-1;-4,992041360E-1;-1,497683013E0;1,617858771E0
9,137249542E0;3,204783616E-1;-3,641610825E-1;-1,977373382E0;2,036007163E0
9,147220542E0;1,816080862E-1;-2,643532044E-1;-2,291239640E0;2,313578008E0
9,157192542E0;-8,085018173E-2;-1,694507016E-1;-2,389315572E0;2,396680871E0
9,167164542E0;-3,326256598E-1;-5,103742182E-2;-2,329033703E0;2,353219632E0
9,177136542E0;-5,342554164E-1;4,621873140E-2;-2,164011828E0;2,229464558E0
9,187108542E0;-6,011246862E-1;2,809397087E-2;-1,903030713E0;1,995912336E0
9,197080542E0;-5,031586079E-1;-1,085003489E-1;-1,626208906E0;1,705724572E0
9,207052542E0;-3,518721355E-1;-2,608340576E-1;-1,253133743E0;1,327476020E0
9,217024542E0;-2,890025074E-1;-3,063724655E-1;-7,921263975E-1;8,971347538E-1
9,226996542E0;-3,144157492E-1;-3,426376279E-1;-4,289628500E-1;6,326665267E-1
9,236967542E0;-2,493245445E-1;-4,700130813E-1;-1,617579585E-1;5,560941127E-1
9,246939542E0;-2,079943047E-1;-6,350232612E-1;1,139628178E-1;6,778670200E-1
9,256911542E0;-2,368931082E-1;-7,206899406E-1;4,400784069E-1;8,770298395E-1
9,266883542E0;-2,748404780E-1;-7,202839977E-1;7,382665247E-1;1,067419218E0
9,276855542E0;-2,949888868E-1;-7,180983084E-1;9,472758329E-1;1,224751047E0
9,286827542E0;-3,255500903E-1;-7,686822787E-1;1,001804042E0;1,304019419E0
9,296799542E0;-3,742476026E-1;-8,375605787E-1;9,186496192E-1;1,298262729E0
9,306771542E0;-3,872377403E-1;-8,690590909E-1;7,629464525E-1;1,219550762E0
9,316742542E0;-3,825385889E-1;-8,175468752E-1;5,659145808E-1;1,065353452E0
9,326714542E0;-4,084935752E-1;-7,272570947E-1;3,685997039E-1;9,119405817E-1
9,336686542E0;-3,923874928E-1;-6,573146014E-1;1,170191574E-1;7,744184353E-1
9,346658542E0;-3,301760784E-1;-5,785802346E-1;-1,831149137E-1;6,908707566E-1
9,356630542E0;-2,695816750E-1;-4,509011646E-1;-4,058464676E-1;6,638505065E-1
9,366602542E0;-2,356469569E-1;-2,901170598E-1;-5,596218073E-1;6,729591102E-1
9,376574542E0;-2,035089786E-1;-1,328993180E-1;-7,246109372E-1;7,642899603E-1
9,386546542E0;-1,502425982E-1;-2,104091316E-2;-8,929861897E-1;9,057813717E-1
9,396517542E0;-8,818383269E-2;7,249451056E-2;-1,033371406E0;1,039657782E0
9,406489542E0;-5,814339682E-2;1,528772074E-1;-1,181391916E0;1,192660452E0
9,416461542E0;-3,342071123E-2;2,336927444E-1;-1,285403942E0;1,306901885E0
9,426433542E0;-5,029731050E-2;3,169970025E-1;-1,345750716E0;1,383496262E0
9,436405542E0;-7,050039075E-2;4,039746277E-1;-1,368553103E0;1,428671901E0
9,446377542E0;-8,386025526E-2;4,632370354E-1;-1,383250664E0;1,461165115E0
9,456349542E0;-8,941094398E-2;5,009865135E-1;-1,343104851E0;1,436284249E0
9,466321542E0;-1,077066625E-1;5,238549739E-1;-1,254727694E0;1,363952472E0
9,476293542E0;-1,613599093E-1;5,767920099E-1;-1,154660785E0;1,300756538E0
9,486265167E0;-1,891799381E-1;6,497959591E-1;-1,016403955E0;1,221106399E0
9,496237167E0;-1,840215976E-1;7,097787438E-1;-9,345967305E-1;1,187906083E0
9,506209167E0;-1,916919385E-1;7,172604024E-1;-8,325312424E-1;1,115489379E0
9,516181167E0;-2,127476525E-1;6,876058097E-1;-6,516382706E-1;9,709252025E-1
9,526153167E0;-2,951382101E-1;6,937578115E-1;-4,606208450E-1;8,835032693E-1
9,536125167E0;-3,924659917E-1;7,212392865E-1;-2,547684485E-1;8,597224118E-1
9,546097167E0;-4,018927997E-1;6,950617406E-1;-1,215051413E-3;8,028886112E-1
9,556069167E0;-3,600992045E-1;6,016302511E-1;3,002007294E-1;7,627259495E-1
9,566040167E0;-4,170994707E-1;4,850927581E-1;6,264280003E-1;8,953764527E-1
9,576012167E0;-4,708767516E-1;3,485057473E-1;8,785710490E-1;1,055967925E0
9,585984167E0;-5,339756271E-1;1,084697972E-1;1,130980731E0;1,255393596E0
9,595956167E0;-7,105176857E-1;-2,013329373E-1;1,402180440E0;1,584765068E0
9,605928167E0;-6,234757411E-1;-5,228510070E-1;1,548843226E0;1,749574381E0
9,615900167E0;-8,070886184E-2;-7,893689968E-1;1,612973149E0;1,797581629E0
9,625872167E0;1,384460599E-1;-9,024730048E-1;1,387731385E0;1,661151177E0
9,635844167E0;1,837592403E-1;-9,991828819E-1;1,228312898E0;1,594015829E0
9,645815167E0;-2,238164317E-2;-1,018611133E0;1,632229784E0;1,924121526E0
9,655787167E0;-3,508249723E-1;-8,387830853E-1;2,190404990E0;2,371604783E0
9,665759167E0;-4,546546385E-1;-5,122013269E-1;2,793916583E0;2,876635346E0
9,675731167E0;-4,744008319E-1;-1,234391078E-1;3,209737231E0;3,246953411E0
9,685703167E0;-3,418686825E-1;7,805448174E-3;3,487019799E0;3,503746880E0
9,695675167E0;-1,106220111E-2;-1,259398158E-1;3,676129863E0;3,678303138E0
9,705647167E0;2,274665195E-1;-3,085542078E-1;3,800883132E0;3,820164826E0
9,715619167E0;4,745544310E-1;-5,171471943E-1;3,755191235E0;3,820223075E0
9,725591167E0;6,717972775E-1;-7,448925894E-1;3,478510346E0;3,620250099E0
9,735562167E0;8,891542900E-1;-9,213922557E-1;2,903493989E0;3,173300551E0
9,745534167E0;1,268110802E0;-9,945470631E-1;1,679400442E0;2,327577004E0
9,755506167E0;1,733922366E0;-9,940664220E-1;1,722180426E-1;2,006069260E0
9,765478167E0;2,078134064E0;-1,244979070E0;-1,689740074E-1;2,428408180E0
9,775450167E0;2,362284187E0;-1,051806069E0;-1,613636808E0;3,048033191E0
9,785422167E0;2,428339013E0;-5,336405817E-1;-2,850673167E0;3,782583791E0
9,795394167E0;2,173567494E0;-1,545084344E-1;-3,316436638E0;3,968251565E0
9,805366167E0;1,565671221E0;-8,219109446E-2;-3,388630455E0;3,733751211E0
9,815337167E0;8,036611267E-1;-4,747675985E-2;-3,174889580E0;3,275370070E0
9,825309167E0;1,525351453E-1;1,194820046E-1;-2,855023495E0;2,861590830E0
9,835281167E0;-2,577910935E-1;3,291723673E-1;-2,523543670E0;2,557945142E0
9,845253167E0;-3,844179571E-1;4,731417802E-1;-2,071909411E0;2,159733529E0
9,855225167E0;-2,230339281E-1;4,988607582E-1;-1,561012452E0;1,653894212E0
9,865197167E0;1,034615839E-1;3,879042864E-1;-9,822404283E-1;1,061117474E0
9,875169167E0;2,558541302E-1;2,126405753E-1;-4,904229337E-1;5,926145494E-1
9,885141167E0;1,460213470E-1;4,043130353E-2;-1,653534114E-2;1,524150308E-1
9,895113167E0;1,295878936E-1;-1,657542381E-1;4,093910497E-1;4,602917784E-1
9,905084167E0;1,344560661E-1;-3,316912016E-1;6,989814216E-1;7,852849895E-1
9,915056167E0;9,459157705E-2;-4,245218897E-1;9,544877887E-1;1,048910549E0
9,925028167E0;1,058359920E-1;-5,322400273E-1;1,110869817E0;1,236330237E0
9,935000167E0;1,399946219E-1;-7,084306683E-1;1,066420453E0;1,287915016E0
9,944972167E0;1,167496739E-1;-9,002244580E-1;9,410327607E-1;1,307508018E0
9,954944167E0;1,175978856E-1;-9,758257404E-1;7,668763661E-1;1,246661341E0
9,964916167E0;1,721288726E-1;-9,236498657E-1;4,865023756E-1;1,058036854E0
9,974888167E0;1,996492316E-1;-8,072338486E-1;1,500570953E-1;8,449872388E-1
9,984859167E0;1,355098806E-1;-6,617922530E-1;-1,339620495E-1;6,886782591E-1
9,994831167E0;1,115671404E-1;-4,901726729E-1;-3,228873414E-1;5,974719335E-1
1,000480317E1;1,407691587E-1;-2,838225321E-1;-4,741711825E-1;5,702714232E-1
1,001477517E1;1,938000425E-1;-5,284596562E-2;-6,235271966E-1;6,550857329E-1
1,002474717E1;2,800789985E-1;1,078076001E-1;-8,162332982E-1;8,696571285E-1
1,003471917E1;3,846182243E-1;2,095817506E-1;-9,621049565E-1;1,057119499E0
1,004469117E1;4,510121155E-1;2,984679070E-1;-1,023950956E0;1,158002842E0
1,005466317E1;4,930685064E-1;4,073424777E-1;-1,031099762E0;1,213347092E0
1,006463517E1;5,015308893E-1;5,296766080E-1;-9,924642849E-1;1,231696350E0
1,007460617E1;5,071851468E-1;6,097945721E-1;-9,166872936E-1;1,212188842E0
1,008457817E1;5,462668399E-1;6,209757641E-1;-8,127553743E-1;1,159564426E0
1,009455017E1;6,420426974E-1;6,025264831E-1;-7,619354689E-1;1,164389388E0
1,010452217E1;7,301859650E-1;5,797214650E-1;-7,330022764E-1;1,185976753E0
1,011449417E1;7,663690471E-1;5,438119595E-1;-6,382808912E-1;1,135982156E0
1,012446617E1;7,933391100E-1;5,775131178E-1;-4,959900677E-1;1,099506477E0
1,013443817E1;7,394991177E-1;6,375185604E-1;-3,471415919E-1;1,036241355E0
1,014441017E1;6,933242404E-1;6,761775729E-1;-2,337102860E-1;9,962605634E-1
1,015438217E1;7,223686031E-1;6,328070202E-1;-2,119726771E-1;9,834599837E-1
1,016435317E1;7,690841286E-1;5,374076504E-1;-2,198383516E-1;9,636525724E-1
1,017432517E1;8,178583856E-1;4,801126845E-1;-2,039508820E-1;9,700497363E-1
1,018429717E1;7,901555204E-1;5,091945425E-1;-1,640138143E-1;9,542145250E-1
1,019426917E1;7,528847831E-1;5,372462672E-1;-1,580946779E-1;9,383298862E-1
1,020424117E1;7,167066711E-1;5,190747289E-1;-1,596015054E-1;8,992105800E-1
1,021421317E1;6,655274543E-1;4,887149620E-1;-1,030641925E-1;8,321005554E-1
1,022418517E1;6,287942954E-1;4,462029268E-1;-1,178155482E-2;7,711148571E-1
1,023415717E1;5,738365348E-1;3,966578606E-1;1,309250057E-1;7,097655839E-1
1,024412917E1;5,188545813E-1;3,382191794E-1;2,940249002E-1;6,856040634E-1
1,025410017E1;5,328735732E-1;2,799595691E-1;4,244844675E-1;7,365586660E-1
1,026407217E1;5,278052797E-1;2,129292816E-1;5,164395350E-1;7,685226643E-1
1,027404417E1;4,336581641E-1;2,074491249E-1;4,607260948E-1;6,658551473E-1
1,028401617E1;4,288639589E-1;1,828854105E-1;4,120760912E-1;6,222363486E-1
1,029398817E1;3,719465040E-1;1,423377474E-1;6,967185491E-1;8,025091731E-1
1,030396017E1;2,502786639E-1;2,129547170E-1;1,034187677E0;1,085142052E0
1,031393217E1;1,543748255E-1;2,572798276E-1;1,524874320E0;1,554112669E0
1,032390417E1;-2,443098262E-2;1,845774485E-1;2,267016379E0;2,274649197E0
1,033387617E1;-2,010324635E-1;3,421001226E-2;3,013942630E0;3,020833421E0
1,034384717E1;-2,731822076E-1;-1,057811013E-1;3,371518579E0;3,384221577E0
1,035381917E1;-2,294319514E-1;-2,190285122E-1;3,263135759E0;3,278516050E0
1,036379117E1;1,566537778E-1;-4,922712386E-1;2,877996621E0;2,923993147E0
1,037376317E1;6,919405700E-1;-8,546310132E-1;2,195148252E0;2,455168379E0
1,038373517E1;1,131180705E0;-1,032096932E0;1,186877189E0;1,937387758E0
1,039370717E1;1,316028441E0;-1,369102741E0;1,121176119E0;2,205313825E0
1,040367917E1;1,263309068E0;-1,504255430E0;1,200633348E0;2,302228189E0
1,041365117E1;1,060596480E0;-1,064993440E0;6,132460374E-1;1,623313471E0
1,042362217E1;7,746397875E-1;-5,063043369E-1;1,863244504E-1;9,439955946E-1
1,043359417E1;5,381214492E-1;-2,134629131E-1;-1,002598679E-1;5,875314038E-1
1,044356617E1;4,474913608E-1;-1,649413289E-1;-6,362712032E-1;7,951699214E-1
1,045353817E1;7,131732718E-1;-2,946538413E-1;-1,338984903E0;1,545418251E0
1,046351017E1;9,142421342E-1;-4,251074152E-1;-1,778630615E0;2,044524850E0
1,047348217E1;8,088710690E-1;-4,562178185E-1;-1,818682873E0;2,042061335E0
1,048345417E1;6,159167531E-1;-4,114185718E-1;-1,600961214E0;1,763999857E0
1,049342596E1;4,555309899E-1;-2,807955017E-1;-1,239714383E0;1,350276397E0
1,050339796E1;2,868422536E-1;-6,895606801E-2;-8,558785897E-1;9,052964035E-1
1,051336896E1;1,336742934E-1;5,459925324E-2;-5,243613428E-1;5,438793184E-1
1,052334096E1;1,342832078E-1;1,727720663E-2;-2,689660728E-2;1,380358984E-1
1,053331296E1;3,146760233E-1;-2,262495312E-1;4,157645148E-1;5,683924540E-1
1,054328496E1;5,265545603E-1;-5,314388857E-1;6,465704888E-1;9,888075602E-1
1,055325696E1;6,032591392E-1;-7,719043869E-1;8,145574862E-1;1,274072945E0
1,056322896E1;6,404428261E-1;-9,576566141E-1;8,603587264E-1;1,437877026E0
1,057320096E1;5,898812945E-1;-1,115192225E0;8,964804858E-1;1,547672737E0
1,058317296E1;4,788336061E-1;-1,211286317E0;8,819127327E-1;1,572980049E0
1,059314496E1;3,726610337E-1;-1,225223083E0;7,804740661E-1;1,499729181E0
1,060311596E1;2,191898223E-1;-1,196135743E0;6,260198647E-1;1,367730151E0
1,061308796E1;1,160562672E-1;-1,155201287E0;4,729286492E-1;1,253642922E0
1,062305996E1;1,413464250E-1;-1,122897686E0;2,586346275E-1;1,160934923E0
1,063303196E1;2,209146778E-1;-1,066409124E0;2,571897805E-2;1,089354479E0
1,064300396E1;3,151484053E-1;-9,411173992E-1;-1,053171247E-1;9,980541935E-1
1,065297596E1;3,375381980E-1;-8,188053422E-1;-1,916682208E-1;9,061517149E-1
1,066294796E1;3,530292995E-1;-6,923802075E-1;-2,642619878E-1;8,208863723E-1
1,067291996E1;4,075409176E-1;-6,066253082E-1;-3,460733056E-1;8,086102874E-1
1,068289196E1;4,463893068E-1;-5,494502833E-1;-4,112112880E-1;8,186902653E-1
1,069286396E1;5,340344647E-1;-5,217482221E-1;-4,764410716E-1;8,856693015E-1
1,070283496E1;6,364243271E-1;-4,624342858E-1;-5,369907439E-1;9,524917070E-1
1,071280696E1;6,812737137E-1;-3,520295718E-1;-5,799864900E-1;9,614795999E-1
1,072277896E1;6,279156782E-1;-2,484451233E-1;-6,090582615E-1;9,093706857E-1
1,073275096E1;5,477824382E-1;-1,762970603E-1;-5,514883304E-1;7,970480736E-1
1,074272296E1;5,307652134E-1;-6,417743102E-2;-5,206670719E-1;7,462738466E-1
1,075269496E1;5,542227808E-1;3,199355207E-2;-4,946095401E-1;7,435220745E-1
1,076266696E1;5,642846695E-1;5,479535423E-2;-4,848943913E-1;7,460176203E-1
1,077263896E1;5,806160159E-1;6,526318587E-2;-5,205916429E-1;7,825534486E-1
1,078260996E1;5,715269577E-1;1,202111524E-1;-5,783095086E-1;8,219097713E-1
1,079258196E1;5,041421827E-1;1,833438322E-1;-6,442959219E-1;8,383862691E-1
1,080255396E1;4,742310434E-1;2,328429978E-1;-7,579008901E-1;9,238640070E-1
1,081252596E1;4,385626625E-1;2,491581181E-1;-8,473872632E-1;9,861450961E-1
1,082249796E1;3,822947600E-1;2,689597870E-1;-8,550213879E-1;9,744486772E-1
1,083246996E1;3,321645337E-1;3,472917923E-1;-7,785766447E-1;9,149461504E-1
1,084244196E1;2,948961353E-1;3,980288134E-1;-6,588589972E-1;8,243093140E-1
1,085241396E1;2,949739764E-1;4,133607244E-1;-5,297513062E-1;7,338345738E-1
1,086238596E1;3,489641690E-1;3,737443035E-1;-4,296896589E-1;6,679026865E-1
1,087235696E1;4,028136630E-1;2,728682122E-1;-3,273739100E-1;5,864209966E-1
1,088232896E1;4,197713924E-1;1,999234660E-1;-1,567223364E-1;4,906519182E-1
1,089230096E1;3,909364332E-1;1,162154576E-1;-2,351808608E-2;4,085222488E-1
1,090227296E1;3,354424828E-1;1,543562606E-2;1,529742712E-1;3,690000616E-1
1,091224496E1;3,442919514E-1;-9,394896805E-2;3,436741930E-1;4,954546471E-1
1,092221696E1;4,000143816E-1;-2,378700683E-1;4,307918590E-1;6,341729265E-1
1,093218896E1;4,858668564E-1;-3,776845229E-1;5,347366422E-1;8,152640538E-1
1,094216096E1;4,885527018E-1;-4,564206438E-1;5,927679187E-1;8,935196427E-1
1,095213296E1;3,670401053E-1;-4,034701592E-1;2,925747907E-1;6,189560699E-1
1,096210496E1;4,032973009E-1;-4,854682955E-1;2,885600924E-2;6,317917759E-1
1,097207596E1;4,041927288E-1;-7,274429630E-1;1,382281780E-1;8,435947224E-1
1,098204796E1;4,179278384E-1;-7,954806527E-1;2,534762138E-1;9,336505438E-1
1,099201996E1;4,964469545E-1;-7,159542806E-1;6,629134566E-1;1,094762240E0
1,100199196E1;3,938183796E-1;-7,112877640E-1;1,671917760E0;1,859121351E0
1,101196396E1;5,255141214E-2;-7,695179920E-1;3,072994246E0;3,168313941E0
1,102193596E1;-2,448774447E-1;-7,427237110E-1;4,155650078E0;4,228596818E0
1,103190796E1;-1,859619230E-1;-6,857749734E-1;4,617319914E0;4,671671257E0
1,104187996E1;-3,204383813E-2;-7,261993334E-1;4,863602883E0;4,917623947E0
1,105185196E1;7,519262782E-1;-1,088298030E0;4,570897699E0;4,758454739E0
1,106182296E1;1,966049372E0;-1,540512260E0;3,141963909E0;4,013784419E0
1,107179496E1;2,789948663E0;-1,881551113E0;1,695249905E0;3,768012788E0
1,108176696E1;3,835381120E0;-2,071890992E0;9,649800324E-1;4,464758345E0
1,109173896E1;4,147283005E0;-1,679044785E0;-6,310285896E-1;4,518555609E0
1,110171096E1;3,644075134E0;-1,268354046E0;-1,907941790E0;4,304445079E0
1,111168296E1;2,812730584E0;-1,327997400E0;-2,264913136E0;3,847708662E0
1,112165496E1;1,726351537E0;-1,420380776E0;-1,907416710E0;2,938708846E0
1,113162696E1;5,561374515E-1;-1,115663218E0;-1,383223767E0;1,862069083E0
1,114159896E1;-1,871019108E-1;-5,241107896E-1;-1,145660166E0;1,273670467E0
1,115156996E1;-3,749159393E-1;5,715733700E-2;-1,084171430E0;1,148588966E0
1,116154196E1;-1,851510604E-1;3,292259424E-1;-8,606388080E-1;9,398775421E-1
1,117151396E1;3,871985275E-1;1,740452244E-1;-5,139807808E-1;6,666263443E-1
1,118148596E1;9,518770069E-1;-2,231211977E-1;-2,752793115E-1;1,015692672E0
1,119145796E1;1,095178375E0;-5,187880692E-1;-7,947710931E-2;1,214443636E0
1,120142996E1;1,209595668E0;-5,905847146E-1;3,807239056E-2;1,346611114E0
1,121140196E1;1,261114608E0;-5,530216165E-1;6,013042688E-2;1,378353594E0
1,122137396E1;1,233020199E0;-5,322960144E-1;-2,728603184E-2;1,343287901E0
1,123134596E1;1,161226696E0;-5,796542220E-1;-1,275400525E-1;1,304113845E0
1,124131696E1;1,006323575E0;-6,422917157E-1;-1,310349333E-1;1,200997893E0
1,125128896E1;7,890877457E-1;-6,582353917E-1;-9,020148754E-2;1,031537498E0
1,126126096E1;6,688345664E-1;-6,627167708E-1;-7,367667139E-2;9,444371062E-1
1,127123296E1;6,472513971E-1;-6,871446837E-1;-3,695849597E-2;9,447053074E-1
1,128120496E1;6,692126620E-1;-7,061796364E-1;-2,433084905E-2;9,732046322E-1
1,129117696E1;6,507646966E-1;-6,932366784E-1;-1,032413632E-1;9,564154754E-1
1,130114896E1;5,930942664E-1;-6,409364042E-1;-2,472196931E-1;9,075670001E-1
1,131112096E1;5,978279530E-1;-5,926609877E-1;-4,132999134E-1;9,377964204E-1
1,132109296E1;6,300923042E-1;-5,436581046E-1;-5,562351000E-1;1,000988478E0
1,133106496E1;6,178734507E-1;-4,929955624E-1;-6,936347276E-1;1,051637467E0
1,134103596E1;6,169986342E-1;-4,351847991E-1;-8,316921669E-1;1,123292030E0
1,135100796E1;5,878118187E-1;-3,289677513E-1;-8,704305553E-1;1,100632485E0
1,136097996E1;4,867955404E-1;-2,118527726E-1;-8,000406039E-1;9,601648105E-1
1,137095196E1;4,552178715E-1;-6,653765962E-2;-7,312446034E-1;8,639266408E-1
1,138092396E1;4,331923603E-1;7,577498127E-2;-5,998103052E-1;7,437539049E-1
1,139089596E1;4,155923143E-1;1,857048282E-1;-4,245125341E-1;6,224260170E-1
1,140086796E1;4,598233578E-1;2,459110862E-1;-3,096960229E-1;6,064828186E-1
1,141083996E1;4,889504586E-1;2,677451742E-1;-1,699048841E-1;5,827758565E-1
1,142081196E1;4,627770057E-1;2,838558613E-1;-1,605820835E-2;5,431340286E-1
1,143078296E1;4,450559223E-1;3,218757000E-1;1,402092147E-1;5,668662665E-1
1,144075496E1;4,500373846E-1;3,572696638E-1;2,190758747E-1;6,149548757E-1
1,145072696E1;4,836853333E-1;3,863977147E-1;2,594058752E-1;6,712273115E-1
1,146069896E1;4,901963541E-1;4,430904539E-1;2,594585001E-1;7,098875469E-1
1,147067096E1;5,173382521E-1;5,174812165E-1;2,092660010E-1;7,610636870E-1
1,148064296E1;5,574435733E-1;5,824407491E-1;1,907835370E-1;8,284798861E-1
1,149061496E1;5,720278448E-1;6,763893152E-1;2,451836926E-1;9,191481948E-1
1,150058696E1;6,020742010E-1;8,098574942E-1;3,219237202E-1;1,059243780E0
1,151055896E1;6,873090635E-1;8,864215938E-1;3,839299339E-1;1,185554379E0
1,152053096E1;7,924199277E-1;9,043382666E-1;3,771617818E-1;1,260161915E0
1,153050196E1;8,722516707E-1;9,449852592E-1;3,222078949E-1;1,325759422E0
1,154047396E1;9,095471124E-1;9,937587123E-1;3,044744593E-1;1,381136135E0
1,155044596E1;9,244192131E-1;1,023601512E0;2,711149246E-1;1,405636596E0
1,156041796E1;9,075095040E-1;1,021669738E0;2,244646686E-1;1,384834626E0
1,157038996E1;9,069870552E-1;9,871358635E-1;1,829482681E-1;1,352971840E0
1,158036196E1;9,173141152E-1;9,200384791E-1;1,574386203E-1;1,308710399E0
1,159033396E1;9,319868258E-1;8,562539810E-1;1,027092665E-1;1,269771443E0
1,160030596E1;8,532423726E-1;8,263654266E-1;1,378481090E-2;1,187894097E0
1,161027796E1;7,849521562E-1;7,515065943E-1;-1,102901816E-2;1,086753739E0
1,162024896E1;7,108113621E-1;6,066066702E-1;1,175337124E-1;9,418272763E-1
1,163022096E1;7,022470915E-1;5,041952462E-1;3,660140651E-1;9,387918405E-1
1,164019296E1;6,097401930E-1;4,067884541E-1;9,346926248E-1;1,187817432E0
1,165016496E1;3,560507020E-1;3,220701199E-1;1,787428336E0;1,850783975E0
1,166013696E1;2,522444978E-1;2,381034453E-1;2,602970493E0;2,625980946E0
1,167010896E1;3,601351283E-1;1,444546587E-1;3,043465807E0;3,068101787E0
1,168008096E1;4,746347205E-1;1,359071989E-2;3,153222722E0;3,188773489E0
1,169005296E1;8,181966470E-1;-1,904905184E-1;2,978949968E0;3,095137364E0
1,170002496E1;1,227072996E0;-4,452383555E-1;2,464706063E0;2,789035910E0
1,170999696E1;1,576553328E0;-6,388031937E-1;1,768842376E0;2,454056492E0
1,171996796E1;1,894058161E0;-7,094393130E-1;1,014365616E0;2,262674978E0
1,172993996E1;1,898281020E0;-5,744355455E-1;2,946102065E-1;2,005054164E0
1,173991196E1;1,617361630E0;-2,912899382E-1;-3,267763245E-1;1,675556993E0
1,174988396E1;1,478996481E0;-8,742895715E-2;-9,169486642E-1;1,742374606E0
1,175985596E1;1,441215867E0;2,227292150E-2;-1,476497381E0;2,063405868E0
1,176982796E1;1,281122318E0;6,922518611E-2;-1,912399707E0;2,302897992E0
1,177979996E1;1,030503054E0;9,559159711E-2;-2,101310965E0;2,342345421E0
1,178977196E1;7,044840901E-1;1,007746422E-1;-1,990307423E0;2,113711665E0
1,179974396E1;3,620019981E-1;1,293509352E-1;-1,710666674E0;1,753327573E0
1,180971596E1;9,220912904E-2;1,313714406E-1;-1,356731787E0;1,366192563E0
1,181968696E1;7,472449243E-3;6,362771966E-2;-9,800810516E-1;9,821726894E-1
1,182965896E1;2,011972819E-1;-1,167262119E-1;-6,215637016E-1;6,636616532E-1
1,183963096E1;5,245861682E-1;-3,327285708E-1;-2,084725338E-1;6,552554823E-1
1,184960296E1;6,524728145E-1;-5,339887103E-1;3,819448042E-1;9,256060446E-1
1,185957496E1;6,683746829E-1;-7,091117227E-1;1,037762665E0;1,423557340E0
1,186954696E1;6,313539141E-1;-8,412234208E-1;1,576554351E0;1,895201369E0
1,187951896E1;5,484217581E-1;-9,252487137E-1;2,050375285E0;2,315359673E0
1,188949096E1;4,803952512E-1;-1,021832072E0;2,340699483E0;2,598806351E0
1,189946296E1;5,647104929E-1;-1,195636976E0;2,286926733E0;2,641681207E0
1,190943496E1;7,496435983E-1;-1,443072212E0;1,959171000E0;2,546129207E0
1,191940596E1;9,052423192E-1;-1,655626102E0;1,504175177E0;2,413110940E0
1,192937796E1;9,771017490E-1;-1,699412830E0;9,953557330E-1;2,198514233E0
1,193934996E1;8,753764227E-1;-1,552980278E0;4,442778772E-1;1,837230104E0
1,194932196E1;6,213363911E-1;-1,295013695E0;1,730015695E-2;1,436460468E0
1,195929396E1;4,782092696E-1;-1,048196802E0;-2,978191584E-1;1,189998694E0
1,196926596E1;5,181172474E-1;-8,612562009E-1;-6,830039048E-1;1,215196305E0
1,197923796E1;5,278920378E-1;-6,920915743E-1;-9,483675081E-1;1,287269079E0
1,198920996E1;5,235494569E-1;-5,460871111E-1;-1,091616690E0;1,328134844E0
1,199918196E1;5,971088916E-1;-4,278734406E-1;-1,224273641E0;1,427746707E0
1,200915296E1;7,146218464E-1;-3,386349895E-1;-1,369605601E0;1,581511158E0
1,201912496E1;8,006218171E-1;-2,458034974E-1;-1,482084396E0;1,702348028E0
1,202909696E1;8,070942463E-1;-1,398845480E-1;-1,555912510E0;1,758360756E0
1,203906896E1;7,309667145E-1;-1,452594548E-2;-1,572248461E0;1,733922883E0
1,204904096E1;7,064636649E-1;1,077101708E-1;-1,563698078E0;1,719256836E0
1,205901296E1;7,311443236E-1;2,327483460E-1;-1,510327032E0;1,694057720E0
1,206898496E1;7,277111310E-1;3,145413181E-1;-1,445196066E0;1,648360216E0
1,207895696E1;6,995733060E-1;3,790485321E-1;-1,316753204E0;1,538479639E0
1,208892896E1;6,251094532E-1;4,811733694E-1;-1,213087333E0;1,447021257E0
1,209890096E1;5,237795448E-1;6,032591392E-1;-1,120967959E0;1,376530336E0
1,210887296E1;4,183627251E-1;7,035159373E-1;-9,818989509E-1;1,278314356E0
1,211884396E1;3,625532444E-1;7,550769773E-1;-9,021885377E-1;1,231068745E0
1,212881596E1;3,547507198E-1;7,812162240E-1;-8,662299156E-1;1,219221526E0
1,213878796E1;2,731418619E-1;8,129720137E-1;-7,998219180E-1;1,172708434E0
1,214875996E1;1,812354724E-1;8,804363108E-1;-7,272579718E-1;1,156251941E0
1,215873196E1;8,573436096E-2;9,382113330E-1;-6,476229876E-1;1,143243815E0
1,216870396E1;-3,775254786E-2;9,976252567E-1;-4,325583029E-1;1,088020263E0
1,217867596E1;-1,627021377E-1;1,035122793E0;-1,564171118E-1;1,059442068E0
1,218864796E1;-1,468132793E-1;1,013150053E0;5,610754251E-2;1,025268367E0
1,219861996E1;-1,058973147E-1;8,984897353E-1;3,188018918E-1;9,592354726E-1
1,220859096E1;-9,228199996E-2;7,427003952E-1;6,083203429E-1;9,644550192E-1
1,221856296E1;-4,260281324E-2;5,678234775E-1;8,302479047E-1;1,006752246E0
1,222853496E1;4,669929944E-2;3,892461493E-1;9,686889213E-1;1,045012735E0
1,223850696E1;1,639514684E-1;2,193102019E-1;9,731216955E-1;1,010911907E0
1,224847896E1;2,469419503E-1;4,221587375E-2;9,477892184E-1;9,803402008E-1
1,225845096E1;2,562284982E-1;-3,470103219E-2;9,790238750E-1;1,012593182E0
1,226842296E1;1,924808376E-1;-1,283675797E-2;8,385252231E-1;8,604290819E-1
1,227839496E1;2,836162716E-1;-9,005486861E-2;5,660742098E-1;6,395217587E-1
1,228836696E1;3,343432063E-1;-3,972924297E-1;7,286735827E-1;8,947579809E-1
1,229833896E1;4,014761855E-1;-5,503759707E-1;1,099588784E0;1,293519358E0
1,230830996E1;4,542456257E-1;-4,739803440E-1;1,579158701E0;1,710186732E0
1,231828196E1;2,658571813E-1;-4,285407541E-1;2,222614378E0;2,279109890E0
1,232825396E1;-1,477942228E-2;-4,870946255E-1;2,911210560E0;2,951715862E0
1,233822596E1;-2,383595534E-1;-6,083447550E-1;3,682185239E0;3,739704100E0
1,234819796E1;-2,206852477E-1;-7,519892820E-1;4,102464389E0;4,176649844E0
1,235816996E1;-1,452044910E-1;-8,966491780E-1;4,159702199E0;4,257720807E0
1,236814196E1;-6,716988981E-4;-1,043714692E0;3,943342940E0;4,079129117E0
1,237811396E1;3,273926210E-1;-1,157593090E0;3,363457607E0;3,572121886E0
1,238808596E1;7,987819907E-1;-1,179437776E0;2,421557119E0;2,809459916E0
1,239805796E1;1,324766521E0;-1,094230322E0;1,176135269E0;2,082220090E0
1,240802996E1;1,609158425E0;-8,848921815E-1;-2,502438730E-1;1,853387981E0
1,241800096E1;1,520679820E0;-6,119352378E-1;-1,484607469E0;2,211558543E0
1,242797296E1;1,319908654E0;-4,676891785E-1;-2,278479846E0;2,674390104E0
1,243794496E1;9,626509403E-1;-4,159912040E-1;-2,714190382E0;2,909737951E0
1,244791696E1;4,241679870E-1;-2,593425060E-1;-2,780199600E0;2,824302893E0
1,245788896E1;-1,014579624E-1;2,690099269E-2;-2,587749022E0;2,589876905E0
1,246786096E1;-5,247671396E-1;3,824685685E-1;-2,245862907E0;2,337854348E0
1,247783296E1;-7,068634683E-1;7,068507506E-1;-1,859471295E0;2,111143634E0
1,248780496E1;-5,721404037E-1;8,840460894E-1;-1,477421826E0;1,814292529E0
1,249777696E1;-1,323606433E-1;8,226603384E-1;-9,787022781E-1;1,285358908E0
1,250774896E1;1,711767997E-1;6,199010459E-1;-4,768059379E-1;8,005764834E-1
1,251771996E1;3,325766163E-1;4,615112297E-1;-1,531385779E-2;5,690644384E-1
1,252769196E1;5,924267337E-1;3,669966166E-1;4,045893162E-1;8,058216094E-1
1,253766396E1;6,857045875E-1;3,294145882E-1;8,371452802E-1;1,131157360E0
1,254763596E1;6,549482332E-1;3,424732480E-1;1,174711472E0;1,387873249E0
1,255760796E1;5,637840016E-1;3,712036883E-1;1,355730159E0;1,514479726E0
1,256757996E1;4,821387447E-1;3,520924294E-1;1,322208656E0;1,450745525E0
1,257755196E1;4,761202788E-1;2,174365712E-1;1,149555581E0;1,263110136E0
1,258752396E1;4,537886658E-1;8,075081561E-2;8,762116975E-1;9,900463556E-1
1,259749596E1;4,324789269E-1;-2,993810959E-3;5,036733091E-1;6,638778407E-1
1,260746796E1;4,749121709E-1;-4,407923520E-3;1,188873428E-1;4,895867647E-1
1,261743896E1;4,541849609E-1;1,091183265E-1;-1,762222159E-1;4,992444864E-1
1,262741096E1;4,195809925E-1;2,936469873E-1;-4,595800406E-1;6,881065151E-1
1,263738296E1;4,910480011E-1;4,392066236E-1;-7,614291000E-1;1,006878777E0
1,264735496E1;5,887258116E-1;5,456439287E-1;-1,054195679E0;1,325010909E0
1,265732696E1;6,060612711E-1;6,770314126E-1;-1,219018164E0;1,520423323E0
1,266729896E1;6,436939511E-1;8,103528996E-1;-1,335039201E0;1,689184239E0
1,267727096E1;6,656623788E-1;9,223041290E-1;-1,441005952E0;1,835823919E0
1,268724296E1;6,900495073E-1;1,024736676E0;-1,505695453E0;1,947658177E0
1,269721496E1;7,005464289E-1;1,114684102E0;-1,506194805E0;2,000477127E0
1,270718696E1;6,398808356E-1;1,251302834E0;-1,413494802E0;1,993282173E0
1,271715796E1;5,512716910E-1;1,404490675E0;-1,301252235E0;1,992423628E0
1,272712996E1;5,816171323E-1;1,437353489E0;-1,247722730E0;1,990245098E0
1,273710196E1;6,472375099E-1;1,370866553E0;-1,147279260E0;1,901168378E0
1,274707396E1;6,112633927E-1;1,297562350E0;-9,516846335E-1;1,721340939E0
1,275704596E1;5,558456755E-1;1,258691814E0;-7,814505512E-1;1,582382527E0
1,276701796E1;5,280712549E-1;1,226947134E0;-5,840456271E-1;1,457864128E0
1,277698996E1;5,036838341E-1;1,184252081E0;-3,836972147E-1;1,342897594E0
1,278696196E1;5,158670926E-1;1,146888958E0;-2,312193722E-1;1,278645978E0
1,279693396E1;5,478118935E-1;1,103151492E0;-1,202246010E-1;1,237535875E0
1,280690596E1;5,079638498E-1;1,105621503E0;3,676202953E-2;1,217282887E0
1,281687796E1;4,311785062E-1;1,131610037E0;1,786564118E-1;1,224081000E0
1,282684896E1;3,581798194E-1;1,142945157E0;3,013005906E-1;1,235070225E0
1,283682096E1;3,775908212E-1;1,091699574E0;3,828160393E-1;1,216935047E0
1,284679296E1;4,680662508E-1;1,023656403E0;4,934728414E-1;1,229013381E0
1,285676496E1;4,515617537E-1;9,750775892E-1;6,420985383E-1;1,251788662E0
1,286673696E1;4,024799332E-1;9,598094858E-1;7,213376659E-1;1,266314485E0
1,287670896E1;4,372055237E-1;8,674478906E-1;7,560426450E-1;1,230940695E0
1,288668096E1;4,419473232E-1;7,298014375E-1;8,645213592E-1;1,214629472E0
1,289665296E1;4,071113665E-1;6,438303374E-1;9,851219362E-1;1,245280048E0
1,290662496E1;4,350223196E-1;6,116106077E-1;1,011696362E0;1,259698965E0
1,291659696E1;5,717356302E-1;4,978085518E-1;1,183351902E0;1,405352877E0
1,292656896E1;6,085400520E-1;3,679509553E-1;1,641082469E0;1,788535873E0
1,293653996E1;5,572609940E-1;3,418549781E-1;2,276939104E0;2,368935695E0
1,294651196E1;4,236648341E-1;3,482808488E-1;2,877497853E0;2,929297755E0
1,295648396E1;2,968701553E-1;3,032811888E-1;3,340448229E0;3,367299472E0
1,296645596E1;2,852070797E-1;2,137114929E-1;3,767700768E0;3,784519092E0
1,297642796E1;2,727422778E-1;3,305452935E-2;3,973187714E0;3,982675176E0
1,298639996E1;4,656823410E-1;-2,410260299E-1;3,884918146E0;3,920145736E0
1,299637196E1;8,848994174E-1;-5,812375018E-1;3,538032662E0;3,693041989E0
1,300634396E1;1,220474705E0;-8,635214122E-1;3,104878528E0;3,446084504E0
1,301631596E1;1,284284639E0;-9,641190299E-1;2,688598874E0;3,131689071E0
1,302628796E1;1,167660388E0;-8,291106212E-1;2,176968089E0;2,605771529E0
1,303625996E1;9,932516856E-1;-6,013689537E-1;1,469909323E0;1,873186309E0
1,304623096E1;8,475530317E-1;-4,176354776E-1;5,651766622E-1;1,100995092E0
1,305620296E1;7,174497791E-1;-3,232293670E-1;-4,021089274E-1;8,836871611E-1
1,306617496E1;7,199617430E-1;-2,295464107E-1;-1,304907330E0;1,507918965E0
1,307614696E1;6,628358348E-1;-1,122746535E-1;-2,103756271E0;2,208562290E0
1,308611896E1;4,499414172E-1;-6,995009467E-2;-2,677977991E0;2,716414257E0
1,309609096E1;1,343355404E-1;-9,921497047E-2;-3,014790477E0;3,019412404E0
1,310606296E1;-2,423569293E-1;-1,385014623E-1;-3,076817740E0;3,089454150E0
1,311603496E1;-5,686510777E-1;-1,210063007E-1;-2,923600225E0;2,980846331E0
1,312600696E1;-7,876984473E-1;1,960198648E-2;-2,647566622E0;2,762329108E0
1,313597896E1;-9,033779345E-1;2,399337700E-1;-2,255027248E0;2,441066938E0
1,314594996E1;-8,084798902E-1;3,425955279E-1;-1,859322776E0;2,056232627E0
1,315592196E1;-5,362122602E-1;2,459249733E-1;-1,508471126E0;1,619718438E0
1,316589396E1;-3,545204857E-1;1,355008905E-1;-1,034318070E0;1,101752756E0
1,317586596E1;-3,174023607E-1;1,147305572E-1;-5,916218644E-1;6,811195122E-1
1,318583796E1;-3,461716850E-1;1,023306593E-1;-2,251476234E-1;4,254384229E-1
1,319580996E1;-3,512059915E-1;1,650902867E-2;1,588431215E-1;3,858099710E-1
1,320578196E1;-3,203944541E-1;-1,279419024E-1;4,439732373E-1;5,622579230E-1
1,321575396E1;-3,339411371E-1;-3,206466883E-1;6,478024971E-1;7,962280183E-1
1,322572596E1;-4,290008569E-1;-4,850474422E-1;9,470121235E-1;1,147233506E0
1,323569796E1;-5,289420515E-1;-6,315937961E-1;1,173679438E0;1,433950432E0
1,324566996E1;-4,814835642E-1;-7,461843856E-1;1,218018290E0;1,507377230E0
1,325564096E1;-3,084662803E-1;-8,170684268E-1;1,157179180E0;1,449764090E0
1,326561296E1;-7,092533715E-2;-8,502048902E-1;9,963105834E-1;1,311683475E0
1,327558496E1;1,014628960E-1;-8,332059380E-1;8,106679183E-1;1,166923017E0
1,328555696E1;2,356820768E-1;-8,020260990E-1;5,593534201E-1;1,005817157E0
1,329552896E1;2,828208676E-1;-7,221388076E-1;3,017011249E-1;8,321632468E-1
1,330550096E1;1,786317073E-1;-5,839574803E-1;6,855860353E-2;6,145046036E-1
1,331547296E1;1,247155550E-1;-4,290695617E-1;-1,561873162E-1;4,733382893E-1
1,332544496E1;2,085543218E-1;-3,267133939E-1;-4,433528477E-1;5,888958264E-1
1,333541696E1;2,044573239E-1;-2,218837076E-1;-7,748800349E-1;8,315493043E-1
1,334538896E1;1,697597270E-1;-9,492304109E-2;-1,054566978E0;1,072352675E0
1,335536096E1;6,108388849E-2;2,058402635E-2;-1,301711242E0;1,303306219E0
1,336533296E1;-4,175423607E-2;1,242753328E-1;-1,496476732E0;1,502208503E0
1,337530396E1;-1,500263974E-2;1,588931883E-1;-1,668089004E0;1,675706731E0
1,338527596E1;2,633147389E-2;1,453458475E-1;-1,770046318E0;1,776198956E0
1,339524796E1;5,120823361E-2;1,528449015E-1;-1,801639409E0;1,808836202E0
1,340521996E1;5,441857427E-3;2,260533571E-1;-1,785827953E0;1,800086446E0
1,341519196E1;5,625986248E-2;3,047475243E-1;-1,761632760E0;1,788682813E0
1,342516396E1;5,054501317E-2;3,524827310E-1;-1,685536510E0;1,722739737E0
1,343513596E1;-1,987394048E-1;4,213506523E-1;-1,456362494E0;1,529060312E0
1,344510796E1;-3,317923950E-1;4,645906658E-1;-1,320004840E0;1,438173654E0
1,345507996E1;-4,355024856E-1;4,312090579E-1;-1,239229065E0;1,382494970E0
1,346505196E1;-3,940113742E-1;3,619558051E-1;-1,127133263E0;1,247672377E0
1,347502396E1;-2,508537010E-1;2,513498738E-1;-1,047459102E0;1,106017590E0
1,348499496E1;-3,456618078E-1;1,817620142E-1;-7,279151988E-1;8,260629830E-1
1,349496696E1;-3,240810870E-1;2,300070982E-1;-2,650127703E-1;4,776647198E-1
1,350493896E1;-2,034635165E-1;2,385345313E-1;7,213066757E-2;3,217125400E-1
1,351491096E1;-3,337837739E-1;2,277262455E-1;4,067580485E-1;5,733436672E-1
1,352488296E1;-1,598413143E-1;-1,750059950E-1;1,084955542E0;1,110542603E0
1,353485496E1;-4,735113242E-1;-4,042747360E-1;1,046513608E0;1,217719905E0
1,354482696E1;-1,545765544E-1;1,155548684E-1;5,461457294E-1;5,792426060E-1
1,355479896E1;4,118803556E-1;6,769087672E-2;9,834496325E-1;1,068363544E0
1,356477096E1;3,834701966E-1;-2,638006425E-1;9,026808733E-1;1,015614558E0
1,357474296E1;5,623219053E-1;-3,402719906E-1;7,657776743E-1;1,009161236E0
1,358471496E1;7,098906449E-1;-3,217290080E-1;4,689683300E-1;9,096073751E-1
1,359468596E1;8,798086122E-1;-4,457028437E-1;2,600590092E-1;1,019972993E0
1,360465796E1;7,932706976E-1;-5,833755362E-1;4,771965319E-1;1,094222073E0
1,361462996E1;5,879926439E-1;-5,175478747E-1;1,000283182E0;1,270495020E0
1,362460196E1;4,788116790E-1;-3,591011944E-1;1,528841656E0;1,641819448E0
1,363457396E1;4,071341707E-1;-2,772210257E-1;1,926166391E0;1,988146548E0
1,364454596E1;3,943759116E-1;-3,596607730E-1;2,491734817E0;2,548260314E0
1,365451796E1;3,604095820E-1;-4,793500614E-1;3,232689307E0;3,287849100E0
1,366448996E1;4,515908436E-1;-5,454868944E-1;3,516954035E0;3,587541766E0
1,367446196E1;6,002570325E-1;-6,887745219E-1;3,284751745E0;3,409444658E0
1,368443396E1;8,014742681E-1;-8,537485953E-1;3,112723153E0;3,325701895E0
1,369440596E1;1,003418313E0;-8,066174059E-1;2,649155311E0;2,945420821E0
1,370437696E1;1,328045493E0;-9,445940074E-1;1,648365760E0;2,317988859E0
1,371434896E1;1,786265325E0;-9,896829106E-1;5,919984251E-1;2,126188658E0
1,372432096E1;2,004692890E0;-5,086286782E-1;-4,867046893E-1;2,124706608E0
1,373429296E1;1,972187779E0;-1,229847792E-1;-1,546797870E0;2,509428928E0
1,374426496E1;1,898278681E0;2,999533921E-2;-2,102899069E0;2,833115982E0
1,375423696E1;1,491362465E0;2,800655499E-2;-2,238170895E0;2,689675691E0
1,376420896E1;8,515525272E-1;-5,007175416E-2;-1,894824731E0;2,077982110E0
1,377418096E1;1,788045656E-1;-8,934691697E-3;-9,583557218E-1;9,749341470E-1
1,378415296E1;-2,818357944E-1;1,680923934E-1;1,352729952E-1;3,549440111E-1
1,379412496E1;-2,634014969E-1;3,463384768E-1;7,203091407E-1;8,415319051E-1
1,380409696E1;1,697264709E-1;4,647906406E-1;6,913882273E-1;8,502088540E-1
1,381406896E1;6,014903565E-1;4,738791141E-1;5,728786147E-1;9,563168778E-1
1,382403996E1;9,035282810E-1;3,144759755E-1;6,394883412E-1;1,150740558E0
1,383401196E1;1,110728899E0;1,810125473E-1;5,989753228E-1;1,274855155E0
1,384398396E1;1,020587784E0;2,335478796E-1;2,397218084E-1;1,074062653E0
1,385395596E1;7,611595434E-1;3,001492739E-1;-4,363133848E-2;8,193638574E-1
1,386392796E1;4,442007671E-1;3,673862605E-1;-8,899052918E-2;5,832720636E-1
1,387389996E1;2,305488427E-1;3,901325141E-1;-2,121592033E-1;5,003675399E-1
1,388387196E1;1,406842279E-1;3,887170494E-1;-4,124678546E-1;5,839715126E-1
1,389384396E1;8,736969014E-2;4,217063092E-1;-5,293349844E-1;6,823966586E-1
1,390381596E1;6,910904579E-2;4,904262958E-1;-5,482437104E-1;7,388268930E-1
1,391378796E1;8,239793971E-2;5,464518312E-1;-5,333841813E-1;7,680479862E-1
1,392375996E1;1,567240175E-1;5,636859146E-1;-5,451645666E-1;7,996928364E-1
1,393373096E1;2,243510134E-1;5,954550067E-1;-6,562499696E-1;9,140919345E-1
1,394370296E1;2,588171337E-1;6,861179857E-1;-7,517279845E-1;1,050161493E0
1,395367496E1;3,731786585E-1;7,773667096E-1;-8,588419586E-1;1,217033616E0
1,396364696E1;4,400064131E-1;8,228690109E-1;-1,024283663E0;1,385595928E0
1,397361896E1;5,013901906E-1;8,207262987E-1;-1,149514065E0;1,498788300E0
1,398359096E1;5,406009975E-1;8,356630111E-1;-1,241238753E0;1,590992064E0
1,399356296E1;5,508732764E-1;8,590090428E-1;-1,194642291E0;1,571155023E0
1,400353496E1;5,698273914E-1;8,639264050E-1;-1,169161295E0;1,561412893E0
1,401350696E1;5,627285792E-1;8,965506524E-1;-1,088383765E0;1,518237710E0
1,402347896E1;5,419088004E-1;9,556931922E-1;-8,678566110E-1;1,400067757E0
1,403345096E1;4,779341947E-1;9,802079362E-1;-6,587601793E-1;1,274046179E0
1,404342296E1;4,625108478E-1;9,926660138E-1;-5,381596023E-1;1,220212218E0
1,405339396E1;5,272878742E-1;9,654068792E-1;-4,372799295E-1;1,183746882E0
1,406336596E1;6,793517339E-1;8,937694243E-1;-3,399395764E-1;1,172988268E0
1,407333796E1;8,502684056E-1;8,054560027E-1;-2,924905908E-1;1,207172929E0
1,408330996E1;9,337422330E-1;7,704868756E-1;-2,340652120E-1;1,233008965E0
1,409328196E1;9,665819503E-1;7,271628083E-1;-2,023931837E-1;1,226380617E0
1,410325396E1;9,217426501E-1;7,099961141E-1;-2,313176054E-1;1,186259596E0
1,411322596E1;8,646330410E-1;7,188881211E-1;-2,269491506E-1;1,147125252E0
1,412319796E1;8,405167117E-1;7,053298898E-1;-2,315672815E-1;1,121419637E0
1,413316996E1;8,246189363E-1;6,817318431E-1;-2,783122623E-1;1,105537160E0
1,414314196E1;8,268067452E-1;6,846925807E-1;-3,481572533E-1;1,128550751E0
1,415311396E1;7,705533877E-1;7,170354308E-1;-4,312929654E-1;1,137499870E0
1,416308496E1;7,396023211E-1;7,631242079E-1;-4,866497254E-1;1,168844774E0
1,417305696E1;7,044808741E-1;7,566095325E-1;-4,611745763E-1;1,132004097E0
1,418302896E1;6,677723466E-1;7,501702863E-1;-3,601054537E-1;1,066935473E0
1,419300096E1;7,223148087E-1;7,294220263E-1;-2,411239707E-1;1,054483734E0
1,420297296E1;7,858665146E-1;7,147547244E-1;-3,842614710E-2;1,062984978E0
1,421294496E1;8,327158682E-1;6,794666317E-1;2,008430868E-1;1,093356560E0
1,422291696E1;9,028071000E-1;6,184529829E-1;3,293754119E-1;1,142817971E0
1,423288896E1;1,054673251E0;5,388460654E-1;2,207879394E-1;1,204756433E0
1,424286096E1;1,229517863E0;3,643745059E-1;5,602509677E-2;1,283597198E0
1,425283296E1;1,230754987E0;2,831128263E-1;1,245281518E-1;1,269022447E0
1,426280496E1;1,219082556E0;2,707348555E-1;4,529925674E-1;1,328405776E0
1,427277696E1;1,116885360E0;1,805307367E-1;1,287935202E0;1,714293247E0
1,428274796E1;9,318738283E-1;-4,712855816E-4;2,644017947E0;2,803430035E0
1,429271996E1;7,363060994E-1;-1,341099840E-1;3,742746021E0;3,816841618E0
1,430269196E1;7,032965206E-1;-1,212016708E-1;4,525525644E0;4,581451538E0
1,431266396E1;9,083597622E-1;-1,303654271E-1;4,708596119E0;4,797185635E0
1,432263596E1;1,304966533E0;-3,672612762E-1;4,267288628E0;4,477451365E0
1,433260796E1;1,639720067E0;-8,524763873E-1;3,555907601E0;4,007477605E0
1,434257996E1;1,841591679E0;-1,405268062E0;2,578803366E0;3,466477325E0
1,435255196E1;2,251445244E0;-1,593752035E0;1,526764140E0;3,152786066E0
1,436252396E1;2,301337781E0;-1,370557236E0;4,380459148E-1;2,714123605E0
1,437249596E1;2,014596173E0;-1,017596349E0;-4,934172928E-1;2,310316146E0
1,438246796E1;1,619440462E0;-7,411486173E-1;-1,400405810E0;2,265618042E0
1,439243996E1;1,311664372E0;-6,549644592E-1;-2,056303777E0;2,525436020E0
1,440241196E1;9,736725763E-1;-5,994711667E-1;-2,574321476E0;2,816830670E0
1,441238296E1;5,672008221E-1;-5,145962003E-1;-2,744051528E0;2,848919937E0
1,442235496E1;2,624779292E-1;-3,794797643E-1;-2,393396344E0;2,437467049E0
1,443232696E1;6,634148553E-2;-2,454487176E-1;-1,881938052E0;1,899035834E0
1,444229896E1;4,348895878E-2;-7,750045806E-2;-1,469509959E0;1,472194664E0
1,445227096E1;2,554044794E-1;-4,110665694E-2;-1,096930055E0;1,127021185E0
1,446224296E1;5,803171501E-1;-1,986290386E-1;-6,746435559E-1;9,117924200E-1
1,447221496E1;7,896210118E-1;-4,335073060E-1;-1,830897707E-1;9,192125928E-1
1,448218696E1;9,038597450E-1;-6,057430364E-1;1,878166598E-1;1,104156765E0
1,449215892E1;9,607228209E-1;-6,852142985E-1;5,959376943E-1;1,321986652E0
1,450213092E1;8,401137654E-1;-7,147738740E-1;1,167557988E0;1,606201882E0
1,451210292E1;5,824752843E-1;-7,469962715E-1;1,696593595E0;1,943118811E0
1,452207492E1;4,349448439E-1;-7,790534851E-1;2,043359211E0;2,229667737E0
1,453204592E1;4,132460459E-1;-7,917955913E-1;2,143863493E0;2,322469209E0
1,454201792E1;4,802057649E-1;-8,348353377E-1;1,923320552E0;2,150978745E0
1,455198992E1;5,822599971E-1;-9,373696263E-1;1,501719346E0;1,863558294E0
1,456196192E1;6,550602074E-1;-1,037878147E0;1,041864486E0;1,609899541E0
1,457193392E1;7,713190806E-1;-9,811244141E-1;5,535494739E-1;1,365267468E0
1,458190592E1;6,601029924E-1;-7,506049537E-1;1,492168504E-1;1,010648023E0
1,459187792E1;5,479252564E-1;-5,257041559E-1;-7,817025661E-2;7,633462747E-1
1,460184992E1;4,968751900E-1;-3,636300091E-1;-2,563126981E-1;6,669392305E-1
1,461182192E1;4,523647226E-1;-2,180097811E-1;-3,815530407E-1;6,306701435E-1
1,462179392E1;4,377947038E-1;-6,434780426E-2;-3,852625144E-1;5,867129175E-1
1,463176592E1;4,827759451E-1;3,311044335E-2;-3,791796559E-1;6,147732314E-1
1,464173792E1;5,418456870E-1;6,440006375E-2;-3,862495244E-1;6,685303373E-1
1,465170892E1;6,073445157E-1;1,357218421E-1;-4,610178709E-1;7,744838646E-1
1,466168092E1;5,690873531E-1;2,454061791E-1;-4,722965652E-1;7,791974421E-1
1,467165292E1;5,197687203E-1;2,622029639E-1;-4,130490679E-1;7,138063108E-1
1,468162492E1;5,708715579E-1;1,684905888E-1;-4,845979375E-1;7,675406016E-1
1,469159692E1;6,744511825E-1;1,202520099E-1;-5,520707130E-1;8,798448816E-1
1,470156892E1;6,889217256E-1;1,959025551E-1;-5,018986791E-1;8,745817510E-1
1,471154092E1;6,468751287E-1;3,184796371E-1;-5,099795312E-1;8,831510820E-1
1,472151292E1;6,523534582E-1;4,043977468E-1;-5,589131248E-1;9,494664044E-1
1,473148492E1;6,763978668E-1;4,478050639E-1;-6,401210099E-1;1,033343291E0
1,474145692E1;6,869296523E-1;5,118091249E-1;-7,177422130E-1;1,117575417E0
1,475142892E1;7,565591003E-1;5,474101898E-1;-8,284007692E-1;1,248313832E0
1,476140092E1;8,097915669E-1;5,039455701E-1;-9,617582166E-1;1,354511863E0
1,477137292E1;8,631640012E-1;4,721601058E-1;-1,046548106E0;1,436401823E0
1,478134392E1;8,670134425E-1;4,825859106E-1;-1,105728360E0;1,485677178E0
1,479131592E1;7,911130750E-1;5,556819534E-1;-1,063814934E0;1,437478537E0
1,480128792E1;6,616415410E-1;6,826478094E-1;-8,954215550E-1;1,305969878E0
1,481125992E1;5,033286888E-1;8,226965180E-1;-7,451516211E-1;1,218778187E0
1,482123192E1;4,684635691E-1;9,132783669E-1;-6,365717500E-1;1,207790994E0
1,483120392E1;5,345162022E-1;9,063976559E-1;-4,880343461E-1;1,159931810E0
1,484117592E1;6,344074032E-1;8,140036087E-1;-2,161347252E-1;1,054413983E0
1,485114792E1;7,807339018E-1;6,458802250E-1;-4,870789111E-2;1,014435384E0
1,486111992E1;8,617961913E-1;4,637817036E-1;-6,279032528E-2;9,806777089E-1
1,487109192E1;8,692326801E-1;3,376547769E-1;6,707399547E-2;9,349198476E-1
1,488106392E1;8,719384792E-1;2,640665446E-1;3,232633173E-1;9,666990348E-1
1,489103592E1;9,516357362E-1;1,782013522E-1;4,920823735E-1;1,086053110E0
1,490100692E1;1,066462115E0;9,024987325E-2;5,369685245E-1;1,197422932E0
1,491097892E1;1,085903595E0;2,342394590E-2;5,012320966E-1;1,196231129E0
1,492095092E1;1,116466480E0;-1,468922898E-2;3,441776383E-1;1,168405503E0
1,493092292E1;1,265927013E0;-1,455298886E-1;3,826230812E-1;1,330470057E0
1,494089492E1;1,248854459E0;-3,310458152E-1;8,949771667E-1;1,571691102E0
1,495086692E1;1,043286091E0;-4,448188908E-1;1,748891677E0;2,084450002E0
1,496083892E1;7,165285503E-1;-4,063917205E-1;2,672243042E0;2,796327997E0
1,497081092E1;5,887255193E-1;-3,766200373E-1;3,375031586E0;3,446632936E0
1,498078292E1;7,071719089E-1;-4,426022114E-1;3,918232073E0;4,006061832E0
1,499075492E1;9,069089949E-1;-5,458675481E-1;4,325899948E0;4,453522838E0
1,500072692E1;1,325300664E0;-8,266818340E-1;4,391408644E0;4,660932801E0
1,501069892E1;1,905891317E0;-1,210635449E0;4,062712094E0;4,647976921E0
1,502067092E1;2,364159243E0;-1,605780781E0;3,444584801E0;4,475817835E0
1,503064192E1;2,941487442E0;-1,828779114E0;2,661310503E0;4,367992103E0
1,504061392E1;3,263712586E0;-1,785555327E0;1,530701070E0;4,022819091E0
1,505058592E1;3,166925965E0;-1,670326441E0;1,538221174E-1;3,583723166E0
1,506055792E1;2,958199369E0;-1,558887720E0;-9,386301398E-1;3,473053551E0
1,507052992E1;2,458239042E0;-1,520948499E0;-1,946360920E0;3,484902345E0
1,508050192E1;1,965643283E0;-1,585513747E0;-2,690809706E0;3,690266146E0
1,509047392E1;1,506836098E0;-1,640282862E0;-3,127121921E0;3,839267431E0
1,510044592E1;9,709849767E-1;-1,545526832E0;-3,182206201E0;3,668501236E0
1,511041792E1;4,837967958E-1;-1,336186571E0;-2,717282975E0;3,066444302E0
1,512038992E1;2,264499080E-1;-1,107987286E0;-1,965478392E0;2,267602411E0
1,513036192E1;9,492654942E-2;-9,360158497E-1;-1,181499504E0;1,510323740E0
1,514033392E1;2,062853828E-1;-8,159058541E-1;-6,732484102E-1;1,077738115E0
1,515030592E1;4,348595111E-1;-7,174516064E-1;-4,464682442E-1;9,503544050E-1
1,516027692E1;5,858307455E-1;-6,787060551E-1;-3,033190495E-1;9,464893118E-1
1,517024892E1;6,275208449E-1;-7,344162793E-1;-2,508952528E-1;9,980471482E-1
1,518022092E1;5,533819512E-1;-8,452901593E-1;-1,911092269E-1;1,028236244E0
1,519019292E1;3,838142321E-1;-9,217249623E-1;-2,245710880E-1;1,023387729E0
1,520016492E1;2,542376127E-1;-8,704562831E-1;-2,217135537E-1;9,335351115E-1
1,521013692E1;1,397603861E-1;-7,806138146E-1;-2,281127465E-1;8,251825969E-1
1,522010892E1;9,844856495E-2;-7,534675312E-1;-2,888132769E-1;8,129074667E-1
1,523008092E1;2,482822783E-2;-7,009472555E-1;-2,505461740E-1;7,447931802E-1
1,524005292E1;-1,351019642E-1;-6,308748809E-1;-5,773833096E-2;6,477571852E-1
1,525002492E1;-2,828650871E-1;-5,340697673E-1;1,174044889E-1;6,156516774E-1
1,525999692E1;-4,324923024E-1;-3,855937591E-1;1,580765516E-1;6,005999791E-1
1,526996892E1;-5,072886425E-1;-2,186313401E-1;1,336620873E-1;5,683370332E-1
1,527994092E1;-4,999096391E-1;-5,511724345E-2;4,596554697E-2;5,050350377E-1
1,528991192E1;-4,965038553E-1;8,314747967E-2;-7,016307950E-2;5,082838177E-1
1,529988392E1;-4,942676242E-1;2,144355243E-1;-2,078293401E-1;5,774739068E-1
1,530985592E1;-5,036149100E-1;3,741479807E-1;-4,042069083E-1;7,463229286E-1
1,531982792E1;-5,147536366E-1;5,518765855E-1;-4,873426205E-1;8,983551089E-1
1,532979992E1;-5,374502619E-1;6,871955545E-1;-4,929348975E-1;1,002035592E0
1,533977192E1;-5,840244310E-1;8,027121967E-1;-5,035323912E-1;1,113093112E0
1,534974392E1;-6,043145982E-1;8,916930049E-1;-4,601004428E-1;1,171326157E0
1,535971592E1;-5,620826080E-1;9,520452605E-1;-3,438607192E-1;1,157828671E0
1,536968792E1;-5,313037054E-1;9,978819495E-1;-1,288100678E-1;1,137824260E0
1,537965992E1;-4,757739409E-1;1,021102120E0;1,118373549E-1;1,132041508E0
1,538963192E1;-3,450669998E-1;1,045254337E0;3,598084152E-1;1,158054385E0
1,539960392E1;-2,552421826E-1;1,111355282E0;5,445038313E-1;1,263623186E0
1,540957592E1;-1,918775876E-1;1,175647976E0;6,973243207E-1;1,380299381E0
1,541954692E1;-3,444031946E-2;1,229764761E0;6,975675648E-1;1,414251750E0
1,542951892E1;1,780563778E-1;1,230874563E0;5,228726417E-1;1,349130113E0
1,543949092E1;3,807877864E-1;1,227169621E0;2,648981649E-1;1,311912975E0
1,544946292E1;5,578240443E-1;1,268459296E0;-6,458775938E-2;1,387201582E0
1,545943492E1;6,921674419E-1;1,378361222E0;-4,156697899E-1;1,597421923E0
1,546940692E1;6,738799095E-1;1,500532800E0;-6,733811420E-1;1,777401187E0
1,547937892E1;5,751984609E-1;1,582681356E0;-7,921959794E-1;1,860996511E0
1,548935067E1;4,785063082E-1;1,646871504E0;-8,148790830E-1;1,898731671E0
1,549932267E1;3,963552672E-1;1,690708226E0;-8,004943478E-1;1,912167097E0
1,550929467E1;3,692283527E-1;1,722691619E0;-8,165893936E-1;1,941858447E0
1,551926667E1;4,352454639E-1;1,699889232E0;-8,042049909E-1;1,930235137E0
1,552923867E1;5,542711665E-1;1,621860917E0;-7,700473112E-1;1,878995003E0
1,553921067E1;6,505336585E-1;1,523149099E0;-7,673926753E-1;1,825395501E0
1,554918267E1;6,773011154E-1;1,440274173E0;-7,207231236E-1;1,747160071E0
1,555915367E1;6,155233086E-1;1,383748408E0;-5,337782836E-1;1,605785744E0
1,556912567E1;5,310018063E-1;1,360105923E0;-2,566056436E-1;1,482463320E0
1,557909767E1;5,243376616E-1;1,328857379E0;-1,506652057E-2;1,428642333E0
1,558906967E1;5,549892046E-1;1,243999223E0;2,405819339E-1;1,383266696E0
1,559904167E1;5,461774506E-1;1,117993919E0;6,199609798E-1;1,390169711E0
1,560901367E1;5,789581840E-1;9,785557323E-1;1,017589771E0;1,525861344E0
1,561898567E1;5,693896542E-1;8,959651268E-1;1,301551613E0;1,679581700E0
1,562895767E1;6,582986147E-1;8,124016909E-1;1,445910596E0;1,784379731E0
1,563892967E1;9,225423300E-1;6,110117432E-1;1,646335607E0;1,983643272E0
1,564890167E1;9,286735741E-1;5,306986282E-1;2,102508475E0;2,358944156E0
1,565887367E1;6,483746472E-1;6,460959873E-1;2,657439646E0;2,810660986E0
1,566884567E1;4,282987525E-1;7,386501020E-1;3,009821513E0;3,128589032E0
1,567881767E1;4,433693661E-1;7,479058059E-1;3,187110845E0;3,303576097E0
1,568878967E1;6,281798261E-1;7,008596203E-1;3,268964848E0;3,401756205E0
1,569876067E1;7,839688008E-1;5,471881418E-1;3,245403492E0;3,383292150E0
1,570873267E1;8,120977087E-1;3,641776740E-1;3,193482556E0;3,315186104E0
1,571870467E1;7,431005640E-1;2,790759818E-1;3,067381504E0;3,168424078E0
1,572867667E1;7,205703650E-1;2,526765340E-1;2,717741396E0;2,822974562E0
1,573864867E1;8,090035815E-1;1,993392561E-1;2,061778525E0;2,223770137E0
1,574862067E1;8,590123319E-1;1,282338978E-1;1,232637498E0;1,507893007E0
1,575859267E1;8,794383372E-1;7,338102154E-2;3,739189160E-1;9,584424443E-1
1,576856467E1;8,968327805E-1;1,179111502E-1;-4,772912568E-1;1,022750712E0
1,577853667E1;7,525490798E-1;1,797948647E-1;-1,104433202E0;1,348491383E0
1,578850867E1;5,815254041E-1;1,797830240E-1;-1,509555784E0;1,627652419E0
1,579848067E1;3,763542448E-1;1,532007046E-1;-1,862441096E0;1,906252819E0
1,580845267E1;1,200408523E-1;1,663695113E-1;-2,116031916E0;2,125953830E0
1,581842467E1;-6,493866540E-2;2,177374470E-1;-2,339872102E0;2,350878150E0
1,582839667E1;-2,334425201E-1;2,652238548E-1;-2,481684038E0;2,506709949E0
1,583836767E1;-4,615479210E-1;2,580993149E-1;-2,435696272E0;2,492440183E0
1,584833967E1;-7,765736809E-1;2,384487234E-1;-2,176767529E0;2,323411576E0
1,585831167E1;-1,019312872E0;2,522918603E-1;-1,853962634E0;2,130687063E0
1,586828367E1;-1,058078450E0;2,590453944E-1;-1,593928767E0;1,930607013E0
1,587825567E1;-1,018799852E0;2,369483279E-1;-1,346525472E0;1,705059675E0
1,588822767E1;-9,821778631E-1;1,946982479E-1;-1,074689001E0;1,468855749E0
1,589819967E1;-1,005061526E0;1,932181714E-1;-7,724464238E-1;1,282246236E0
1,590817167E1;-1,090214382E0;1,816764987E-1;-4,550852859E-1;1,195272507E0
1,591814367E1;-1,137036107E0;1,156878926E-1;-6,542800426E-2;1,144777542E0
1,592811567E1;-1,263966003E0;2,039362639E-2;4,009254509E-1;1,326185196E0
1,593808767E1;-1,489203089E0;-8,432401255E-2;1,070293064E0;1,835855011E0
1,594805967E1;-1,761442140E0;-1,759862807E-1;1,677690716E0;2,438912816E0
1,595803167E1;-1,938257264E0;-2,580718330E-1;2,095919833E0;2,866412782E0
1,596800367E1;-1,854391527E0;-4,384328543E-1;2,295815670E0;2,983581890E0
1,597797467E1;-1,589178197E0;-7,362691158E-1;2,218137165E0;2,826254064E0
1,598794667E1;-1,308016148E0;-1,036587667E0;1,890090825E0;2,521480430E0
1,599791867E1;-1,076195828E0;-1,228441683E0;1,460537991E0;2,190990108E0
1,600789067E1;-9,600540456E-1;-1,245372149E0;1,036841728E0;1,883532938E0
1,601786267E1;-9,847195016E-1;-1,105899318E0;6,199340826E-1;1,605304976E0
1,602783467E1;-1,053322471E0;-8,860994853E-1;9,148378193E-2;1,379503464E0
1,603780667E1;-1,142786113E0;-6,788966744E-1;-3,852402949E-1;1,383933119E0
1,604777867E1;-1,118911200E0;-5,161707093E-1;-7,195291221E-1;1,426925588E0
1,605775067E1;-1,077001428E0;-3,800092296E-1;-9,989161026E-1;1,517291162E0
1,606772267E1;-1,051508007E0;-2,327513427E-1;-1,224206983E0;1,630498394E0
1,607769467E1;-9,799526321E-1;-8,958826080E-2;-1,413477260E0;1,722280809E0
1,608766667E1;-9,150779937E-1;3,766308546E-2;-1,531717901E0;1,784641693E0
1,609763867E1;-8,948249929E-1;1,625913329E-1;-1,592450591E0;1,833861117E0
1,610761067E1;-8,663741226E-1;2,811388063E-1;-1,602973241E0;1,843682825E0
1,611758167E1;-8,614578567E-1;3,995724052E-1;-1,539246776E0;1,808603988E0
