"Time (s)";"Linear Acceleration x (m/s^2)";"Linear Acceleration y (m/s^2)";"Linear Acceleration z (m/s^2)";"Absolute acceleration (m/s^2)"
5,466374918E-3;-8,744879383E-1;1,884522521E-1;-6,903456688E-1;1,129964844E0
1,543837495E-2;-1,212848766E0;4,022831744E-1;-5,014151144E-1;1,372680225E0
2,540937497E-2;-1,351930638E0;1,191533911E-1;-5,302956820E-1;1,457095567E0
3,538137500E-2;-1,420449480E0;4,940025991E-1;-6,837301290E-1;1,652029716E0
4,535337503E-2;-1,920643111E0;1,218487236E0;-7,596328354E-1;2,398045694E0
5,532537494E-2;-2,698237424E0;1,785978227E0;-6,475580835E-1;3,299929529E0
6,529737497E-2;-2,781535396E0;1,980781724E0;-6,205065250E-2;3,415301697E0
7,526937500E-2;-9,098174000E-1;1,153251021E0;1,359018048E0;2,001171076E0
8,524137503E-2;-5,173499465E-2;1,117443842E-1;2,019665709E0;2,023416144E0
9,521337494E-2;-9,391821170E-1;1,946146327E-1;5,683517003E-1;1,114881859E0
1,051853750E-1;-1,632846081E0;7,206769305E-1;1,413096607E-2;1,784870092E0
1,151573750E-1;-1,251135750E0;8,828061873E-1;9,019183964E-1;1,777116829E0
1,251283750E-1;-2,939798766E-1;8,072119215E-1;1,770149229E0;1,967598421E0
1,351003749E-1;-3,464826107E-1;3,074916226E-1;1,339491856E0;1,417335433E0
1,450723750E-1;-1,219756521E0;2,153927135E-1;4,736887872E-1;1,326115025E0
1,550443750E-1;-1,512404548E0;6,152028081E-1;2,093268120E-1;1,646104409E0
1,650163750E-1;-1,678361684E0;8,308495831E-1;4,250200725E-1;1,920377837E0
1,749883749E-1;-1,364012447E0;8,921851212E-1;4,464495331E-1;1,689923499E0
1,849603750E-1;-1,134055197E0;8,669573092E-1;4,806791335E-1;1,506236567E0
1,949323750E-1;-1,103130589E0;8,512575352E-1;4,017154098E-1;1,450141978E0
2,049043750E-1;-1,274689358E0;1,135865495E0;-9,357053626E-1;1,946938085E0
2,148763749E-1;-8,331035386E-1;1,625288262E0;-2,088494453E0;2,774424719E0
2,248483750E-1;2,282504484E-1;1,105089844E0;4,792576754E-1;1,225972981E0
2,348193750E-1;5,355583222E-1;5,827788278E-1;4,365607220E-1;9,039021754E-1
2,447913750E-1;4,087841088E-1;-5,957844973E-2;-4,493860048E-1;6,104111897E-1
2,547633749E-1;-3,872910596E-2;-7,795838276E-1;1,702095240E-1;7,988880835E-1
2,647353749E-1;-7,523660620E-1;-8,133278167E-1;5,802566314E-1;1,250701638E0
2,747073750E-1;-1,833068339E0;-2,966239876E-1;4,809562916E-1;1,918187760E0
2,846793750E-1;-1,930933919E0;2,128050283E-1;6,031514043E-1;2,034105060E0
2,946513749E-1;-1,735958220E0;4,428628510E-1;3,798573482E-1;1,831384736E0
3,046233749E-1;-1,883122698E0;6,886558235E-1;1,902210349E-1;2,014095822E0
3,145953750E-1;-1,923821073E0;1,284228652E0;3,298852891E-1;2,336483481E0
3,245673750E-1;-1,355474928E0;1,126017906E0;5,459796685E-1;1,844809585E0
3,345393749E-1;-5,221304838E-1;5,493628675E-1;4,757949543E-1;8,948746509E-1
3,445103749E-1;-5,302028574E-1;4,758285758E-1;-2,819468915E-2;7,129676318E-1
3,544823750E-1;-9,037324219E-1;4,822146124E-1;-2,165890539E-1;1,046983305E0
3,644543750E-1;-1,420663196E0;4,799584642E-1;-1,636103565E-1;1,508447014E0
3,744263749E-1;-2,506882029E0;4,843614176E-1;-3,910068190E-1;2,583011774E0
3,843983749E-1;-3,034264336E0;-3,582030621E-1;-1,426293772E0;3,371851631E0
3,943703750E-1;-1,720589253E-1;-1,487872847E0;-1,394580814E0;2,046515460E0
4,043423750E-1;1,167466699E0;-1,517909117E0;-1,042218828E0;2,180194180E0
4,143143750E-1;2,745403331E-1;-4,604311028E-1;-8,471112746E-1;1,002480277E0
4,242863749E-1;-1,932778130E-1;2,608173931E-1;-3,855034196E-1;5,039790790E-1
4,342583750E-1;-1,953489334E-1;4,985312676E-1;-2,671388179E-1;5,983792933E-1
4,442303750E-1;5,888498457E-1;6,610657364E-1;-4,249861586E-1;9,820210199E-1
4,542013750E-1;2,389682047E0;9,415604720E-1;-6,360414076E-1;2,646065963E0
4,641733749E-1;3,734241831E0;1,478286045E0;-4,126695836E-1;4,037349114E0
4,741453750E-1;2,787053706E0;1,826329277E0;-6,928950548E-3;3,332145705E0
4,841173750E-1;9,599642178E-1;1,816427017E0;-2,430716783E-1;2,068821464E0
4,940893750E-1;-7,084062561E-1;1,606797904E0;-8,182213515E-1;1,937298405E0
5,040613749E-1;-2,145617219E0;1,386574514E0;-7,885613501E-1;2,673591430E0
5,140333750E-1;-3,072790470E0;8,667701983E-1;-2,733169860E-1;3,204377323E0
5,240053750E-1;-3,655407623E0;-5,653854078E-1;8,152433646E-1;3,787649309E0
5,339773750E-1;-3,954277818E0;-2,189150178E0;1,964323567E0;4,928210491E0
5,439493749E-1;-3,914391037E0;-1,908146150E0;1,397991495E0;4,573604611E0
5,539213750E-1;-2,603944347E0;-2,391920507E-1;7,421040523E-1;2,718171706E0
5,638923750E-1;-5,573026554E-1;5,678327599E-1;-1,656188750E-1;8,126806905E-1
5,738643750E-1;-4,014218795E-1;-4,346937060E-1;-1,255886028E0;1,388289544E0
5,838363749E-1;-2,611498073E-2;-1,185568289E0;-1,164509250E0;1,662027664E0
5,938083749E-1;9,717856067E-1;-1,106328869E0;-3,204221553E-1;1,506984137E0
6,037803750E-1;1,608912696E0;-3,125418627E-1;1,643675709E-1;1,647209512E0
6,137523750E-1;1,621897754E0;1,843855137E-1;7,249611855E-2;1,633954109E0
6,237243749E-1;1,296665387E0;5,483811200E-2;-4,404286551E-1;1,370520246E0
6,336963749E-1;6,587565248E-1;-6,258865482E-1;-4,121901119E-1;9,977949782E-1
6,436683750E-1;1,664975654E-1;-1,251656152E0;5,669460297E-2;1,263953654E0
6,536403750E-1;6,537947237E-2;-1,157874999E0;-2,732053041E-2;1,160041120E0
6,636123749E-1;2,203815579E-2;-8,356741208E-1;-1,282247615E-1;8,457413942E-1
6,735833749E-1;-3,515258342E-2;-8,652791584E-1;3,736370802E-2;8,667985768E-1
6,835553750E-1;-1,985261276E-2;-9,776100183E-1;6,402701139E-3;9,778325361E-1
6,935273750E-1;-1,174729013E-1;-8,305940598E-1;-2,816732419E-1;8,848876708E-1
7,034993749E-1;-1,629813422E-1;-7,633405548E-1;-3,452997190E-1;8,535125169E-1
7,134713749E-1;3,509484217E-1;-7,977730536E-1;2,756862777E-1;9,141168216E-1
7,234433750E-1;4,163392961E-1;-9,854061109E-1;7,199723411E-1;1,289466473E0
7,334153750E-1;-2,120827509E-1;-1,225376426E0;3,643575490E-1;1,295871484E0
7,433873749E-1;-2,192441283E-1;-1,162528798E0;2,095677173E-1;1,201440728E0
7,533593749E-1;-2,984448105E-2;-1,041224216E0;4,063697934E-2;1,042444207E0
7,633313750E-1;1,331533796E-1;-1,024089535E0;-1,669660735E-1;1,046119911E0
7,733033750E-1;2,737096265E-1;-1,023490781E0;-2,025662613E-1;1,078648890E0
7,832753750E-1;1,180513372E-1;-1,061473124E0;-4,993878847E-1;1,179003635E0
7,932463749E-1;-4,726026669E-2;-1,448163528E0;-7,412655616E-1;1,627539791E0
8,032183750E-1;-2,421446022E-1;-1,712774010E0;-6,770385754E-1;1,857581775E0
8,131903750E-1;-1,596086682E-1;-1,439443576E0;-7,275871700E-1;1,620757793E0
8,231623750E-1;2,540426628E-1;-1,461486994E0;-9,445100999E-1;1,758573637E0
8,331343749E-1;1,391108883E-1;-1,817350293E0;-1,187557805E0;2,175409724E0
8,431063750E-1;-1,651825266E-1;-1,756446864E0;-1,111267428E0;2,085019460E0
8,530783750E-1;-1,992551292E-1;-1,426459833E0;-9,141291368E-1;1,705908069E0
8,630503750E-1;-2,967404202E-1;-1,104931385E0;-1,025627353E0;1,536502428E0
8,730223749E-1;-3,994723447E-1;-6,412354892E-1;-1,588449342E0;1,758957765E0
8,829943750E-1;-7,869816517E-1;2,939161420E-1;-1,668750324E0;1,868275799E0
8,929663750E-1;-1,144351266E0;1,226293269E0;-1,316188948E0;2,132061995E0
9,029383750E-1;-9,594092439E-1;1,430227779E0;-1,374692094E0;2,203587065E0
9,129093749E-1;-8,002128044E-1;1,089777741E0;-1,710639192E0;2,180422551E0
9,228813750E-1;-1,110278371E0;1,255637521E0;-2,259720808E0;2,813482145E0
9,328533750E-1;-2,416796463E0;1,872631039E0;-1,381076669E0;3,354850953E0
9,428253750E-1;-1,902598019E0;4,713469774E-1;-6,313203657E-1;2,059274775E0
9,527973749E-1;-1,310715515E-2;-8,464446920E-1;-6,621755379E-1;1,074763629E0
9,627693749E-1;1,480424371E-1;-4,420144200E-2;-4,863351452E-1;5,102863943E-1
9,727413750E-1;1,786818106E-1;6,635753614E-1;-4,843640488E-1;8,407544121E-1
9,827133750E-1;7,692497510E-1;5,156864136E-1;-1,118180591E-1;9,328348916E-1
9,926853749E-1;6,449879399E-1;8,994152033E-1;-8,495887399E-2;1,110033856E0
1,002657375E0;-2,001705839E-1;1,529954381E0;2,617038310E-2;1,543215332E0
1,012629375E0;-1,477635103E0;1,958006819E0;-4,196160758E-1;2,488628911E0
1,022601375E0;-2,737800270E0;2,271325192E0;-9,346873623E-1;3,678057764E0
1,032572375E0;-3,221026450E0;2,392126914E0;-1,219076051E0;4,193259947E0
1,042544375E0;-2,923088886E0;1,976311528E0;-1,221255308E0;3,733861328E0
1,052516375E0;-1,425742234E0;2,123641482E0;2,681813765E-1;2,571870003E0
1,062488375E0;-5,185179278E-1;3,169256957E0;1,278000197E0;3,456347061E0
1,072460375E0;-7,363957080E-1;4,243565304E0;1,626932791E0;4,604023831E0
1,082432375E0;-1,418745017E-1;4,803359020E0;2,433442170E0;5,386467028E0
1,092404375E0;2,460781704E-1;4,664968289E0;2,451566784E0;5,275667096E0
1,102376375E0;-1,490646766E-1;4,705900553E0;2,708061331E0;5,431511435E0
1,112348375E0;-1,570904186E-1;5,243029876E0;2,971822797E0;6,028745343E0
1,122320375E0;1,966266596E-1;5,552111356E0;3,011805473E0;6,319460006E0
1,132292375E0;-3,738364702E-1;5,857056516E0;2,859941588E0;6,528715848E0
1,142264375E0;-6,104308954E-1;6,317027151E0;2,754436183E0;6,918408530E0
1,152235375E0;-3,922303489E-1;6,869310118E0;3,411978972E0;7,680030381E0
1,162207375E0;-5,552399039E-2;7,330618595E0;3,915164623E0;8,310810185E0
1,172179375E0;3,249709967E-1;7,536329489E0;4,276830114E0;8,671398050E0
1,182151375E0;8,115578645E-1;7,608713926E0;5,410491793E0;9,371476683E0
1,192123375E0;1,693759742E0;7,645966537E0;6,104078574E0;9,929219586E0
1,202095375E0;2,381441712E0;7,261419137E0;6,532370748E0;1,005342430E1
1,212067375E0;2,421211549E0;6,494667317E0;6,723768243E0;9,656708979E0
1,222039375E0;2,463290744E0;5,730464298E0;6,419590822E0;8,950819442E0
1,232011375E0;3,036085451E0;4,680390320E0;6,452740442E0;8,530048512E0
1,241983375E0;2,571220405E0;3,488264671E0;6,605732839E0;7,900308293E0
1,251955375E0;1,961196183E0;2,997306132E0;3,741039804E0;5,179335221E0
1,261927375E0;1,590660759E0;2,142294685E0;3,981284353E0;4,792729208E0
1,271898375E0;1,804764453E0;1,330134557E0;3,383939819E0;4,059246404E0
1,281870375E0;1,662120751E0;4,840658408E-1;2,936586306E0;3,408886073E0
1,291842375E0;1,692967737E0;-4,062838393E-1;2,845644853E0;3,336000742E0
1,301814375E0;1,620873322E0;-9,571202052E-1;2,621518446E0;3,227331464E0
1,311786375E0;1,535815630E0;-1,244471093E0;2,494140362E0;3,182479237E0
1,321758375E0;1,717350918E0;-1,845031012E0;2,909266945E0;3,849320429E0
1,331730375E0;1,208299413E0;-2,266595380E0;2,818771635E0;3,813517486E0
1,341702375E0;1,569255856E0;-2,895218425E0;3,003954417E0;4,457420308E0
1,351674375E0;1,937228592E0;-4,058545368E0;3,293181676E0;5,574019257E0
1,361646375E0;2,056538397E0;-4,891137421E0;3,359485009E0;6,280025077E0
1,371618375E0;1,761320372E0;-5,171270506E0;2,595373791E0;6,048161143E0
1,381590375E0;1,421388251E0;-5,417028396E0;1,598036583E0;5,823938712E0
1,391562375E0;1,027355352E0;-5,659722928E0;6,701609342E-1;5,791117191E0
1,401534375E0;5,655372892E-1;-5,928470315E0;1,117770555E-1;5,956432390E0
1,411505375E0;3,178297922E-1;-6,166260204E0;-3,282825673E-1;6,183166674E0
1,421477375E0;8,949879840E-2;-6,436896826E0;-8,674192393E-1;6,495696030E0
1,431449375E0;-1,958089265E-1;-6,589443666E0;-1,546311382E0;6,771276678E0
1,441421375E0;-6,810105890E-1;-6,854052978E0;-1,958300934E0;7,160779301E0
1,451393375E0;-8,922637662E-1;-7,066692823E0;-2,219468576E0;7,460584618E0
1,461365375E0;-7,496101230E-1;-7,240652166E0;-2,404250531E0;7,666118949E0
1,471337375E0;-6,236815631E-1;-7,381592283E0;-2,362799619E0;7,775583924E0
1,481313542E0;-6,555874801E-1;-7,328307776E0;-2,283227785E0;7,703701637E0
1,491285542E0;-4,820523521E-1;-7,170608370E0;-2,155585406E0;7,503102512E0
1,501257542E0;-1,799664804E-1;-7,150122065E0;-2,144089780E0;7,466843675E0
1,511229542E0;8,965857357E-2;-7,160258798E0;-2,011391898E0;7,437946093E0
1,521201542E0;2,802298567E-1;-7,003323623E0;-1,669066658E0;7,204918740E0
1,531173542E0;3,838220528E-1;-6,887188565E0;-1,566117071E0;7,073429746E0
1,541145542E0;5,324480420E-1;-6,985368578E0;-1,770966085E0;7,226008301E0
1,551116542E0;5,936137185E-1;-6,914760525E0;-1,804803337E0;7,171025412E0
1,561088542E0;8,791323817E-1;-6,863740645E0;-1,684286960E0;7,121841893E0
1,571060542E0;1,119187189E0;-6,894287084E0;-1,676399651E0;7,182902627E0
1,581032542E0;1,291780038E0;-7,015646630E0;-1,583062302E0;7,307125259E0
1,591004542E0;1,220001665E0;-6,974601515E0;-1,538683689E0;7,245758611E0
1,600976542E0;1,251778359E0;-6,950521511E0;-1,593658041E0;7,239920186E0
1,610948542E0;1,450953381E0;-7,130153823E0;-1,615779228E0;7,453529484E0
1,620920542E0;1,506623844E0;-7,289686916E0;-1,699513110E0;7,635299310E0
1,630892542E0;1,636459660E0;-7,436302341E0;-1,775423418E0;7,818485853E0
1,640864542E0;1,788372223E0;-7,573720679E0;-1,849268489E0;7,998707025E0
1,650836542E0;1,949574257E0;-7,650719739E0;-1,824764562E0;8,103339929E0
1,660808542E0;2,098996930E0;-7,700769566E0;-1,862192005E0;8,196059973E0
1,670780542E0;2,428830179E0;-7,837260536E0;-1,899618424E0;8,422019883E0
1,680751542E0;2,700510529E0;-8,126186664E0;-1,822581797E0;8,754968374E0
1,690723542E0;2,832653217E0;-8,295502149E0;-1,833525592E0;8,955506476E0
1,700695542E0;2,996970794E0;-8,384442392E0;-1,783260148E0;9,080788783E0
1,710667542E0;3,125694323E0;-8,524818252E0;-1,785932034E0;9,253758397E0
1,720639542E0;3,173542382E0;-8,707434399E0;-1,858048522E0;9,452149457E0
1,730611542E0;3,363729795E0;-8,938661372E0;-1,877979926E0;9,733506761E0
1,740583542E0;3,573700385E0;-9,332764292E0;-1,802453488E0;1,015483443E1
1,750555542E0;3,650027600E0;-9,818581374E0;-1,824824935E0;1,063283724E1
1,760527542E0;3,968934449E0;-1,026550044E1;-1,806044117E0;1,115323878E1
1,770499542E0;4,648539952E0;-1,099460964E1;-1,561968764E0;1,203869225E1
1,780471542E0;5,051534148E0;-1,185065604E1;-9,293555787E-1;1,291587193E1
1,790443542E0;4,928291214E0;-1,253038785E1;-3,690493548E-1;1,346977622E1
1,800415542E0;5,036665263E0;-1,285009372E1;3,524599269E-1;1,380641639E1
1,810386542E0;5,685052482E0;-1,284967155E1;1,100665549E0;1,409415997E1
1,820358542E0;6,441210317E0;-1,242048007E1;1,763039307E0;1,410197941E1
1,830330542E0;7,586809087E0;-1,173939405E1;2,468049501E0;1,419381250E1
1,840302542E0;8,663207814E0;-1,125205904E1;3,114411829E0;1,453821045E1
1,850274542E0;9,653551898E0;-1,105024590E1;3,820587664E0;1,516231805E1
1,860246542E0;1,023942303E1;-1,123597685E1;4,304948789E0;1,579954252E1
1,870218542E0;1,043838623E1;-1,209168295E1;4,742613466E0;1,666316555E1
1,880190542E0;1,048960316E1;-1,229268333E1;5,726522689E0;1,714452974E1
1,890162542E0;1,070995432E1;-1,043111580E1;5,997456935E0;1,610840737E1
1,900134542E0;1,183305826E1;-8,056596612E0;6,463350214E0;1,570684287E1
1,910106542E0;1,232738772E1;-8,062449675E0;6,775761099E0;1,621352896E1
1,920078542E0;1,196734425E1;-8,884414998E0;6,647376709E0;1,631985831E1
1,930050542E0;1,164950715E1;-9,095999420E0;6,900927767E0;1,631168374E1
1,940022542E0;1,120176012E1;-8,965453899E0;7,055228772E0;1,598859113E1
1,949994542E0;1,074975047E1;-8,759362936E0;6,915477979E0;1,549539963E1
1,959965542E0;1,013515548E1;-8,464964399E0;7,153796455E0;1,501844874E1
1,969937542E0;9,150896589E0;-7,594652542E0;7,093891146E0;1,384705554E1
1,979909542E0;8,690019636E0;-6,588110501E0;6,818566811E0;1,286127889E1
1,989881542E0;8,712306299E0;-6,223348324E0;6,402614016E0;1,247508764E1
1,999853542E0;8,351293942E0;-6,079433729E0;5,974665073E0;1,193315749E1
2,009825542E0;7,814310215E0;-5,594123601E0;5,872598416E0;1,126255189E1
2,019797542E0;7,185259153E0;-5,273092750E0;5,968630162E0;1,072650932E1
2,029769542E0;6,455124936E0;-5,088723024E0;6,053170960E0;1,020806635E1
2,039741542E0;5,909724727E0;-4,761519853E0;6,159886154E0;9,774513547E0
2,049713542E0;5,406461892E0;-4,411251755E0;6,326950461E0;9,419090952E0
2,059685542E0;4,935131872E0;-3,766677213E0;6,367392728E0;8,893091362E0
2,069657542E0;4,784761366E0;-2,936007139E0;6,249563146E0;8,400661805E0
2,079629542E0;4,942504041E0;-2,694046140E0;6,101915689E0;8,301783295E0
2,089601542E0;5,065044140E0;-2,523056012E0;6,131006171E0;8,343244000E0
2,099572542E0;5,085405314E0;-2,094028843E0;6,272166728E0;8,341845088E0
2,109544542E0;4,949779147E0;-1,570949210E0;6,532845542E0;8,345433835E0
2,119516542E0;4,802814644E0;-1,121562913E0;6,834018663E0;8,427855181E0
2,129488542E0;4,697799820E0;-7,762605625E-1;7,208678421E0;8,639267804E0
2,139460542E0;4,770091871E0;-4,298855406E-1;7,709411166E0;9,075990225E0
2,149432542E0;4,883155387E0;5,063922644E-2;7,966445410E0;9,344090290E0
2,159404542E0;4,877661928E0;5,549843806E-1;8,216844234E0;9,571631142E0
2,169376542E0;4,707647116E0;1,055877923E0;8,503260738E0;9,776618164E0
2,179348542E0;4,445248636E0;1,504384507E0;8,779876723E0;9,955382637E0
2,189320542E0;4,095454747E0;1,919808129E0;9,118232288E0;1,017843666E1
2,199292542E0;3,698233507E0;2,492634119E0;9,386997802E0;1,039258792E1
2,209264542E0;3,379909918E0;3,005228525E0;9,621886886E0;1,063183412E1
2,219236542E0;3,159078124E0;3,438694900E0;9,767737495E0;1,082649957E1
2,229208542E0;2,957432215E0;3,911399601E0;9,927472901E0;1,107249612E1
2,239179542E0;2,736529670E0;4,338061572E0;1,008042671E1;1,131027743E1
2,249151542E0;2,558376119E0;4,686330507E0;1,021008638E1;1,152184212E1
2,259123542E0;2,404882030E0;5,021549041E0;1,025369257E1;1,166780286E1
2,269095542E0;2,252284319E0;5,363937432E0;1,019898602E1;1,174154697E1
2,279067542E0;2,139578068E0;5,616443008E0;1,018239513E1;1,182384865E1
2,289039542E0;2,061880851E0;5,808270273E0;1,026515194E1;1,197333290E1
2,299011542E0;2,148463497E0;5,960515981E0;1,020009231E1;1,200772790E1
2,308983542E0;2,420533272E0;6,044359791E0;1,013949645E1;1,205000643E1
2,318955542E0;2,718899145E0;6,155987231E0;1,018029598E1;1,220356577E1
2,328927542E0;2,905205469E0;6,302572834E0;1,019377615E1;1,233189829E1
2,338899542E0;2,753856724E0;6,855376788E0;9,879797044E0;1,233654358E1
2,348871542E0;3,277167907E0;7,442836019E0;1,000830949E1;1,289580925E1
2,358843542E0;3,436432613E0;6,720121334E0;1,033569392E1;1,279826819E1
2,368815542E0;3,345675640E0;5,772515718E0;9,852029786E0;1,189865430E1
2,378787542E0;3,712905926E0;4,994928423E0;9,603394482E0;1,144378285E1
2,388759542E0;4,374047676E0;4,022535875E0;9,703428063E0;1,137847108E1
2,398730542E0;5,210926908E0;3,486594121E0;9,685735558E0;1,153791884E1
2,408702542E0;5,642324538E0;3,819847991E0;9,861808670E0;1,198675666E1
2,418674542E0;5,668275651E0;4,223824520E0;9,960519025E0;1,221400760E1
2,428646542E0;5,871155323E0;4,194069209E0;9,720433520E0;1,210568086E1
2,438618542E0;6,141984318E0;4,113022122E0;9,614664406E0;1,212776542E1
2,448590542E0;6,502617776E0;4,227194855E0;9,307802528E0;1,211562636E1
2,458562542E0;6,773718667E0;4,255238686E0;8,548020004E0;1,170721858E1
2,468534542E0;7,118648842E0;3,926651478E0;8,215424531E0;1,155798224E1
2,478502542E0;7,557213405E0;3,634192463E0;7,703426540E0;1,138690519E1
2,488474542E0;7,724803376E0;3,469666432E0;6,762635854E0;1,083717749E1
2,498446542E0;7,790585137E0;3,268444446E0;6,031523398E0;1,038052120E1
2,508418542E0;7,897408504E0;3,071020226E0;5,181232408E0;9,932038843E0
2,518390542E0;7,950315281E0;2,666223333E0;4,110266621E0;9,338658985E0
2,528362542E0;7,923787633E0;2,098670948E0;3,364463328E0;8,860611925E0
2,538334542E0;7,885874872E0;1,538270291E0;2,836400405E0;8,520473299E0
2,548305542E0;7,908614109E0;8,044517434E-1;2,340253632E0;8,286742834E0
2,558277542E0;8,079865022E0;-1,896766591E-1;1,950991330E0;8,314238581E0
2,568249542E0;8,652693935E0;-1,281054783E0;1,734595819E0;8,917344691E0
2,578221542E0;9,567598413E0;-2,432934632E0;1,394472348E0;9,970088437E0
2,588193542E0;1,016394717E1;-3,466228269E0;1,366983710E0;1,082539629E1
2,598165542E0;1,073586918E1;-4,276641249E0;1,312617468E0;1,163062818E1
2,608137542E0;1,130498335E1;-4,994178810E0;9,476038617E-1;1,239525811E1
2,618109542E0;1,140354168E1;-5,667514343E0;1,069545205E0;1,277910046E1
2,628081542E0;1,137140772E1;-6,283628440E0;1,467430104E0;1,307464153E1
2,638053542E0;1,129230191E1;-7,157933945E0;1,544305202E0;1,345871388E1
2,648025542E0;1,103122607E1;-7,713025914E0;1,528448723E0;1,354676614E1
2,657997542E0;1,090524196E1;-7,760809361E0;1,765964669E0;1,350085536E1
2,667969542E0;1,086153286E1;-7,949238809E0;2,011411487E0;1,360915390E1
2,677941542E0;1,031681794E1;-8,440200856E0;2,040585877E0;1,348472149E1
2,687913542E0;9,432644091E0;-9,166211032E0;2,073779351E0;1,331520785E1
2,697885542E0;8,640667382E0;-9,700419086E0;2,253263728E0;1,318470556E1
2,707856542E0;7,778904739E0;-1,033660492E1;2,451064509E0;1,316679450E1
2,717828542E0;7,117663001E0;-1,089548881E1;2,108476143E0;1,318402346E1
2,727800542E0;6,500758361E0;-1,138998433E1;1,892119224E0;1,325034782E1
2,737772542E0;5,776837980E0;-1,154027063E1;1,525573062E0;1,299527131E1
2,747744542E0;4,952783446E0;-1,151949431E1;1,144599481E0;1,259122396E1
2,757716542E0;4,208771448E0;-1,152972226E1;7,277333504E-1;1,229544014E1
2,767688542E0;3,608142532E0;-1,151839737E1;1,872231674E-1;1,207175310E1
2,777660542E0;3,170190173E0;-1,135936012E1;-2,661383593E-1;1,179644004E1
2,787632542E0;2,893273056E0;-1,118705320E1;-5,009911913E-1;1,156599241E1
2,797604542E0;2,591294773E0;-1,107602510E1;-1,010397111E0;1,141989680E1
2,807576542E0;2,321729653E0;-1,099656612E1;-1,396125648E0;1,132537248E1
2,817548542E0;2,055384887E0;-1,093634915E1;-1,596564692E0;1,124176848E1
2,827520542E0;1,807059778E0;-1,080174391E1;-1,826392427E0;1,110310073E1
2,837492542E0;1,600227681E0;-1,080299287E1;-2,147632608E0;1,113003636E1
2,847464542E0;1,518806080E0;-1,013439768E1;-2,290019910E0;1,050033235E1
2,857436542E0;1,658831399E0;-9,778011053E0;-2,071891869E0;1,013182894E1
2,867408542E0;1,577896287E0;-9,614233466E0;-2,063294123E0;9,958936914E0
2,877380542E0;1,443209914E0;-9,295808719E0;-2,112288528E0;9,641404329E0
2,887351542E0;1,454453086E0;-9,027225639E0;-2,148154764E0;9,392593114E0
2,897323542E0;1,579989882E0;-8,980011127E0;-2,119955982E0;9,361152773E0
2,907295542E0;1,625496131E0;-8,886483158E0;-2,140745757E0;9,284105395E0
2,917267542E0;1,695322118E0;-8,472953449E0;-2,081843830E0;8,888145531E0
2,927239542E0;1,711471835E0;-8,069706069E0;-1,998222215E0;8,487766721E0
2,937211542E0;1,629563308E0;-7,731858627E0;-2,141909353E0;8,186873034E0
2,947183542E0;1,568138161E0;-7,229735414E0;-2,234812839E0;7,728034671E0
2,957155542E0;1,545514407E0;-6,578460256E0;-2,379475878E0;7,164262668E0
2,967127542E0;1,461762106E0;-5,892338031E0;-2,474259828E0;6,555788101E0
2,977099542E0;1,291507558E0;-5,263004549E0;-2,525019507E0;5,978539301E0
2,987071542E0;1,193290122E0;-4,727768555E0;-2,480285969E0;5,470608313E0
2,997043542E0;1,332916954E0;-4,394757929E0;-2,282967584E0;5,128596869E0
3,007015542E0;1,670760012E0;-4,531614935E0;-2,032605304E0;5,240081799E0
3,016987542E0;2,025692141E0;-4,814211452E0;-1,780611652E0;5,518209711E0
3,026959542E0;2,209093130E0;-4,391717961E0;-1,421655761E0;5,117458765E0
3,036931542E0;2,081231919E0;-3,647428220E0;-1,269543369E0;4,387140217E0
3,046903542E0;2,006516782E0;-3,014582316E0;-1,218226158E0;3,820718664E0
3,056874542E0;2,001886518E0;-2,286139113E0;-1,111951552E0;3,235802517E0
3,066846542E0;1,859821544E0;-1,544185334E0;-1,167172949E0;2,684350427E0
3,076818542E0;1,804879351E0;-8,525070852E-1;-1,160371760E0;2,308856952E0
3,086790542E0;1,846325293E0;-1,872436327E-1;-1,063649750E0;2,139001649E0
3,096762542E0;1,906281180E0;2,678819990E-1;-9,402293533E-1;2,142358500E0
3,106734542E0;2,052483206E0;5,670313990E-1;-7,791371003E-1;2,267436116E0
3,116706542E0;2,323078898E0;7,452539474E-1;-6,322453952E-1;2,520284360E0
3,126678542E0;2,713187877E0;6,287405741E-1;-3,921873719E-1;2,812563617E0
3,136650542E0;3,042294025E0;3,463861316E-1;-2,264445359E-1;3,070311615E0
3,146622542E0;3,313618280E0;7,075540245E-2;-1,242708743E-1;3,316702531E0
3,156594542E0;3,451100353E0;-1,130833966E-1;-8,276792228E-2;3,453944416E0
3,166566542E0;3,436865599E0;-2,392148548E-1;-1,174691007E-1;3,447182600E0
3,176538542E0;3,296653168E0;-2,767077863E-1;-8,614761293E-2;3,309367118E0
3,186510542E0;3,206805145E0;-3,097790533E-1;-1,147229558E-1;3,223774753E0
3,196482542E0;3,237134945E0;-4,108967078E-1;-1,324020123E-1;3,265793785E0
3,206454542E0;3,326588573E0;-5,466906899E-1;-1,655972403E-1;3,375275499E0
3,216426542E0;3,400330734E0;-6,971594292E-1;-1,936656296E-1;3,476461814E0
3,226398542E0;3,464860606E0;-8,984673697E-1;-3,324589410E-1;3,594861830E0
3,236369542E0;3,419886454E0;-1,082935914E0;-5,389214945E-1;3,627507399E0
3,246341542E0;3,305019364E0;-1,188989788E0;-7,095403236E-1;3,583336041E0
3,256313542E0;3,132608948E0;-1,264791337E0;-9,330124274E-1;3,504775048E0
3,266285542E0;2,980077896E0;-1,313424969E0;-1,078876777E0;3,430732358E0
3,276257542E0;2,865080706E0;-1,333413091E0;-1,206333506E0;3,382590494E0
3,286229542E0;2,742102651E0;-1,327478752E0;-1,343771433E0;3,329721978E0
3,296201542E0;2,792099853E0;-1,338138810E0;-1,379522187E0;3,389619231E0
3,306173542E0;2,835626819E0;-1,415989809E0;-1,419749276E0;3,472966254E0
3,316145542E0;2,840528247E0;-1,466660026E0;-1,435113420E0;3,504175065E0
3,326117542E0;2,929238110E0;-1,508942996E0;-1,395302945E0;3,578297805E0
3,336089542E0;3,039456663E0;-1,566295996E0;-1,394314181E0;3,692653787E0
3,346061542E0;3,232235270E0;-1,643734181E0;-1,287388487E0;3,847931395E0
3,356033542E0;3,455868173E0;-1,743463706E0;-1,127729094E0;4,031682457E0
3,366005542E0;3,612436435E0;-1,797556883E0;-8,397206864E-1;4,121412206E0
3,375977542E0;3,790678571E0;-1,869056051E0;-4,728388944E-1;4,252786284E0
3,385949542E0;4,015640546E0;-2,089173315E0;-1,044511521E-1;4,527794626E0
3,395921542E0;4,149701121E0;-2,419742728E0;2,805558389E-1;4,811848485E0
3,405893542E0;4,159515672E0;-2,747189144E0;7,465318564E-1;5,040429410E0
3,415865542E0;4,019769265E0;-2,999508194E0;1,031448549E0;5,120496114E0
3,425837542E0;3,646610779E0;-2,965306660E0;1,138006160E0;4,835894104E0
3,435808542E0;3,374425229E0;-2,702215285E0;1,093139305E0;4,459110518E0
3,445780542E0;3,067953361E0;-2,279935217E0;8,905750903E-1;3,924737751E0
3,455752542E0;2,676680202E0;-1,699704314E0;8,800515640E-1;3,290608213E0
3,465724542E0;2,297362405E0;-1,184989707E0;1,228330147E0;2,861969528E0
3,475696542E0;1,974833352E0;-9,267205310E-1;1,902371732E0;2,894442246E0
3,485668250E0;1,782710218E0;-8,402384573E-1;2,549373745E0;3,222322591E0
3,495640250E0;1,374217447E0;-7,718353897E-1;3,248339379E0;3,610527965E0
3,505612250E0;1,060007958E0;-7,086544704E-1;3,774790517E0;3,984325724E0
3,515584250E0;6,525328946E-1;-3,646142417E-1;3,999979656E0;4,069223509E0
3,525556250E0;3,826958790E-2;1,324283248E-1;3,963906428E0;3,966302560E0
3,535528250E0;-5,230815335E-1;5,258243161E-1;3,864660175E0;3,935187895E0
3,545500250E0;-9,333919117E-1;5,555234939E-1;3,641017333E0;3,799583402E0
3,555472250E0;-1,294470050E0;3,945636803E-1;3,369268570E0;3,630881973E0
3,565444250E0;-1,624472575E0;6,020772707E-1;3,316258882E0;3,741521236E0
3,575416250E0;-1,936189396E0;6,349339449E-1;3,427070051E0;3,987076576E0
3,585388250E0;-2,163083583E0;6,878775591E-1;3,710032604E0;4,349304317E0
3,595360250E0;-2,378366807E0;7,544890398E-1;3,947943529E0;4,670346935E0
3,605332250E0;-2,495885171E0;5,629640758E-1;4,057562451E0;4,796893201E0
3,615304250E0;-2,583814430E0;4,818924308E-1;4,053448350E0;4,831020684E0
3,625276250E0;-2,655014513E0;4,401286930E-1;4,109443626E0;4,912264472E0
3,635248250E0;-2,682132438E0;3,678448284E-1;4,087804250E0;4,902987642E0
3,645220250E0;-2,648887509E0;4,550496179E-1;3,977861978E0;4,800735475E0
3,655191250E0;-2,404165600E0;5,754496354E-1;3,750451482E0;4,491886111E0
3,665163250E0;-2,179848866E0;5,364200556E-1;3,350632909E0;4,033141263E0
3,675135250E0;-1,967685716E0;4,293879426E-1;2,833134443E0;3,476033926E0
3,685107250E0;-1,784544051E0;2,360684681E-1;2,127339846E0;2,786736552E0
3,695079250E0;-1,594316438E0;1,044838965E-2;1,434084603E0;2,144423634E0
3,705051250E0;-1,560968890E0;-1,268646991E-1;7,936864346E-1;1,755749607E0
3,715023250E0;-1,560881766E0;-2,473389763E-1;2,949668866E-1;1,607648569E0
3,724995250E0;-1,553466181E0;-4,112843782E-1;1,081255424E-1;1,610621976E0
3,734967250E0;-1,528326224E0;-5,354412317E-1;1,826722795E-1;1,629677122E0
3,744939250E0;-1,452851387E0;-6,947679180E-1;3,675641620E-1;1,651842313E0
3,754911250E0;-1,334132591E0;-8,719198412E-1;5,530641550E-1;1,687019247E0
3,764883250E0;-1,348096765E0;-1,000719969E0;7,083498305E-1;1,822241703E0
3,774855250E0;-1,354689500E0;-1,056973692E0;6,162041438E-1;1,825399840E0
3,784827250E0;-1,471573149E0;-1,082882704E0;4,648132986E-1;1,885262286E0
3,794799250E0;-1,668179928E0;-9,249423927E-1;2,598368150E-1;1,925060485E0
3,804771250E0;-1,683234169E0;-8,693704551E-1;1,155164230E-1;1,898005875E0
3,814743250E0;-1,721867892E0;-8,143978572E-1;1,011252558E-1;1,907432627E0
3,824715250E0;-1,762869446E0;-6,581672716E-1;2,404433548E-1;1,897025526E0
3,834687250E0;-1,641714406E0;-6,002780825E-1;4,663300663E-1;1,809149994E0
3,844659250E0;-1,529274057E0;-5,563596457E-1;7,424817824E-1;1,788713056E0
3,854631250E0;-1,446377204E0;-5,334683812E-1;9,830847663E-1;1,828401266E0
3,864603250E0;-1,301676304E0;-5,612601972E-1;1,179272300E0;1,843924448E0
3,874575250E0;-1,158573449E0;-6,059902275E-1;1,266037379E0;1,819990999E0
3,884546250E0;-1,140429393E0;-6,351649100E-1;1,219831511E0;1,786617636E0
3,894518250E0;-1,062167773E0;-6,068263793E-1;1,092239419E0;1,639946823E0
3,904490250E0;-8,963395679E-1;-5,834217292E-1;9,194518572E-1;1,410389043E0
3,914462250E0;-7,888522491E-1;-5,662724304E-1;7,825632763E-1;1,247139775E0
3,924434250E0;-6,738217297E-1;-5,535331017E-1;6,522077894E-1;1,088948860E0
3,934406250E0;-5,166804403E-1;-5,363148057E-1;5,757987142E-1;9,413481861E-1
3,944378250E0;-4,543407892E-1;-4,870023125E-1;5,613724637E-1;8,710544461E-1
3,954350250E0;-2,828793763E-1;-5,705040604E-1;5,877808285E-1;8,665921340E-1
3,964322250E0;-1,642468259E-1;-6,726917553E-1;5,660677779E-1;8,943846748E-1
3,974294250E0;-1,454952438E-1;-6,367804956E-1;4,781227309E-1;8,094810754E-1
3,984266250E0;-1,134503093E-1;-6,907222295E-1;3,720349431E-1;7,927030780E-1
3,994238250E0;-1,589583117E-1;-7,559403187E-1;3,169705439E-1;8,349753505E-1
4,004210250E0;-1,689054488E-1;-7,605455858E-1;3,137101364E-1;8,398646845E-1
4,014182250E0;-1,287232366E-1;-7,632557702E-1;3,186931336E-1;8,370748806E-1
4,024154250E0;-1,087050015E-1;-7,612957835E-1;4,298504573E-1;8,809991277E-1
4,034126250E0;-1,325318205E-1;-7,377408600E-1;5,793386185E-1;9,473433880E-1
4,044098250E0;-1,400145024E-1;-7,631253773E-1;7,832316130E-1;1,102459143E0
4,054070250E0;-1,807397747E-1;-8,235621983E-1;9,432827693E-1;1,265189292E0
4,064042250E0;-2,334126627E-1;-8,542723596E-1;1,059647623E0;1,380983643E0
4,074014250E0;-2,991643104E-1;-8,390812933E-1;1,072484016E0;1,394194630E0
4,083986250E0;-3,719650689E-1;-7,957873392E-1;1,053356604E0;1,371566855E0
4,093958250E0;-4,710169020E-1;-7,196115679E-1;1,010340393E0;1,326832860E0
4,103930250E0;-4,960362607E-1;-7,052227396E-1;9,848009241E-1;1,308901809E0
4,113902250E0;-4,611633935E-1;-6,560792309E-1;9,496778691E-1;1,242980164E0
4,123874250E0;-4,228462970E-1;-5,440945262E-1;8,899585015E-1;1,125550522E0
4,133845250E0;-3,531151074E-1;-4,795944750E-1;7,950307095E-1;9,933654759E-1
4,143817250E0;-2,782146138E-1;-4,125011837E-1;7,012062871E-1;8,597969848E-1
4,153789250E0;-2,943744906E-1;-3,230253357E-1;5,735457820E-1;7,210800734E-1
4,163761250E0;-3,573540464E-1;-2,630878669E-1;4,384803629E-1;6,238446672E-1
4,173733250E0;-4,105110839E-1;-1,396525598E-1;3,641084576E-1;5,662129955E-1
4,183705250E0;-4,805522490E-1;1,584946275E-2;3,375632679E-1;5,874781948E-1
4,193677250E0;-5,424639570E-1;1,618813348E-1;3,745059764E-1;6,787690606E-1
4,203649250E0;-5,274369782E-1;2,493474948E-1;4,205375969E-1;7,191771754E-1
4,213621250E0;-4,300236080E-1;2,238869637E-1;4,459981281E-1;6,587564088E-1
4,223593250E0;-1,715247821E-1;-1,315652758E-1;2,175368875E-1;3,066797517E-1
4,233565250E0;-3,302997105E-2;-4,665522605E-1;-1,008276325E-1;4,784644211E-1
4,243537250E0;-1,429152330E-1;-1,940252334E-1;-2,928642279E-1;3,792624566E-1
4,253509250E0;-2,687213668E-1;7,973847985E-2;-4,070890009E-1;4,942578809E-1
4,263481250E0;-2,208086240E-1;1,920880508E-1;-3,537583011E-1;4,591287437E-1
4,273453250E0;-1,413557075E-2;3,335965168E-1;-2,759172428E-1;4,331475214E-1
4,283425250E0;1,119741797E-2;5,573671210E-1;-9,984939337E-2;5,663509434E-1
4,293397250E0;-7,404680014E-2;8,953736079E-1;2,233788407E-1;9,257834157E-1
4,303369250E0;-1,729047981E-1;1,262985717E0;6,073000038E-1;1,412034803E0
4,313341250E0;-2,348466924E-1;1,551024823E0;9,691175222E-1;1,843914245E0
4,323313250E0;-2,690347776E-1;1,702295800E0;1,110835903E0;2,050401694E0
4,333285250E0;-3,808794415E-1;1,742245147E0;9,978524941E-1;2,043574540E0
4,343257250E0;-5,245563474E-1;1,634986746E0;6,439082515E-1;1,833837195E0
4,353229250E0;-6,681075382E-1;1,319937598E0;3,095106661E-2;1,479716497E0
4,363201250E0;-7,954344597E-1;9,602274156E-1;-6,252492017E-1;1,394879648E0
4,373173250E0;-1,005582513E0;6,537491155E-1;-1,251091896E0;1,733151761E0
4,383145250E0;-1,296041489E0;4,107505274E-1;-1,655545557E0;2,142258301E0
4,393117250E0;-1,381500300E0;1,527643561E-1;-1,749533116E0;2,234445379E0
4,403089250E0;-1,435387947E0;-1,638623714E-2;-1,631490696E0;2,173101231E0
4,413060250E0;-1,495947852E0;-5,763015747E-3;-1,336731970E0;2,006176849E0
4,423032250E0;-1,504599392E0;-2,121685588E-1;-9,429541558E-1;1,788294542E0
4,433004250E0;-1,317863882E0;-3,544026643E-1;-5,041767544E-1;1,454840425E0
4,442976250E0;-1,098557043E0;-5,854466200E-2;-2,160288906E-1;1,121126012E0
4,452948250E0;-1,032726823E0;3,736055052E-1;-9,293973863E-2;1,102154054E0
4,462920250E0;-8,713976848E-1;6,257643414E-1;-6,081689000E-2;1,074529492E0
4,472892250E0;-9,666804028E-1;3,490629870E-1;-1,556312460E-1;1,039488843E0
4,482864750E0;-1,129288254E0;3,691013950E-1;-3,544699073E-1;1,239829309E0
4,492836750E0;-1,314903437E0;3,700287634E-1;-4,375342834E-1;1,434339076E0
4,502808750E0;-1,278620002E0;6,642717648E-1;-4,036104923E-1;1,496338036E0
4,512780750E0;-1,440760369E0;6,622825420E-1;-3,782546264E-1;1,630179489E0
4,522752750E0;-1,441202711E0;6,893300074E-1;-4,292306525E-1;1,654230959E0
4,532724750E0;-1,498161023E0;5,784638751E-1;-4,834512985E-1;1,677149982E0
4,542696750E0;-1,560192964E0;3,351904678E-1;-6,446496785E-1;1,721083363E0
4,552668750E0;-1,683744339E0;3,545839280E-1;-7,667828107E-1;1,883794214E0
4,562640750E0;-1,790948068E0;5,090509933E-1;-8,897901016E-1;2,063578038E0
4,572612750E0;-1,983266499E0;2,927092767E-1;-8,677022445E-1;2,184475203E0
4,582584750E0;-2,062642159E0;2,879092973E-1;-7,942273021E-1;2,228941777E0
4,592556750E0;-2,202506680E0;3,028284681E-1;-7,211411995E-1;2,337260231E0
4,602528750E0;-2,351228564E0;2,118165565E-1;-7,020003390E-1;2,462914227E0
4,612500750E0;-2,544361220E0;1,875202060E-1;-6,755779409E-1;2,639193702E0
4,622472750E0;-2,777049997E0;1,206964713E-1;-6,970167571E-1;2,865729695E0
4,632444750E0;-2,950818429E0;2,216504037E-2;-6,604687357E-1;3,023911315E0
4,642416750E0;-3,043447680E0;-6,919595003E-3;-5,764243662E-1;3,097561414E0
4,652388750E0;-3,273697584E0;-4,707827210E-2;-4,368571758E-1;3,303052593E0
4,662360750E0;-3,395025555E0;-1,009112477E-2;-2,964731294E-1;3,407960778E0
4,672332750E0;-3,601901214E0;9,784145951E-2;-6,487953544E-2;3,603813905E0
4,682304750E0;-3,836157630E0;1,279008257E-1;2,178450358E-1;3,844466211E0
4,692276750E0;-4,244012324E0;1,379065812E-2;5,766255105E-1;4,283027874E0
4,702248750E0;-4,562430054E0;-1,555002683E-1;9,021078461E-1;4,653358668E0
4,712220750E0;-5,090109399E0;-1,737605381E-1;1,073513126E0;5,204981926E0
4,722192750E0;-5,453404509E0;-7,696689963E-2;1,231192651E0;5,591187708E0
4,732164750E0;-5,638383515E0;6,262952685E-3;1,496788389E0;5,833676659E0
4,742135750E0;-5,853149992E0;7,430349290E-2;1,807104802E0;6,126215275E0
4,752107750E0;-5,973287469E0;2,105348468E-2;2,199148332E0;6,365285526E0
4,762079750E0;-6,005518491E0;-1,578105032E-2;2,471602269E0;6,494252780E0
4,772051750E0;-6,207480150E0;3,788118660E-2;2,618136417E0;6,737127214E0
4,782023750E0;-6,452250445E0;-1,444379210E-2;2,675474798E0;6,984977439E0
4,791995750E0;-6,821167653E0;-2,341108203E-1;2,640819813E0;7,318269283E0
4,801967750E0;-7,439747520E0;-5,323468852E-1;2,562291999E0;7,886607424E0
4,811939750E0;-8,065232949E0;-9,358030111E-1;2,602615567E0;8,526272198E0
4,821911750E0;-8,775652109E0;-1,562516356E0;2,713915563E0;9,317664138E0
4,831883750E0;-9,403826673E0;-2,000193896E0;3,000004038E0;1,007138302E1
4,841855750E0;-1,007330012E1;-2,389405035E0;3,396110798E0;1,089560463E1
4,851827750E0;-1,055906341E1;-2,813076155E0;4,006055790E0;1,163854375E1
4,861799750E0;-1,100367750E1;-3,330103335E0;4,784996131E0;1,245257783E1
4,871771750E0;-1,148766791E1;-3,792738546E0;5,412173452E0;1,325303743E1
4,881743750E0;-1,201765369E1;-4,084842051E0;5,900820002E0;1,399748590E1
4,891715750E0;-1,262466133E1;-4,470298108E0;6,493368065E0;1,488386602E1
4,901687750E0;-1,299892991E1;-5,138051305E0;7,123763402E0;1,568820433E1
4,911659750E0;-1,346651772E1;-5,934084812E0;7,886328616E0;1,669594684E1
4,921631750E0;-1,395892110E1;-6,539681522E0;8,852624856E0;1,777604792E1
4,931603750E0;-1,419851076E1;-7,405930148E0;1,023140766E1;1,900334739E1
4,941575750E0;-1,385089145E1;-8,333561676E0;1,190637182E1;2,007628288E1
4,951547750E0;-1,322307591E1;-9,125333732E0;1,363461230E1;2,107187948E1
4,961519750E0;-1,253644673E1;-9,786692414E0;1,495910371E1;2,183384137E1
4,971491750E0;-1,182283850E1;-9,909896171E0;1,631316449E1;2,245228024E1
4,981463750E0;-1,130114992E1;-9,677412631E0;1,809453979E1;2,342606828E1
4,991435750E0;-1,059162304E1;-9,763559074E0;2,021332633E1;2,482112257E1
5,001407750E0;-9,411516931E0;-1,044027605E1;2,231176573E1;2,637026554E1
5,011379750E0;-8,039708099E0;-1,120445568E1;2,422278315E1;2,787328393E1
5,021351750E0;-6,710818999E0;-1,152876448E1;2,582258603E1;2,906464263E1
5,031323750E0;-5,475574227E0;-1,179307383E1;2,712677474E1;3,008189507E1
5,041295750E0;-4,160065311E0;-1,235103854E1;2,797369949E1;3,086068955E1
5,051267750E0;-2,758904040E0;-1,299052980E1;2,862759361E1;3,155795513E1
5,061239750E0;-1,844058766E0;-1,316191871E1;2,939768127E1;3,226236695E1
5,071211750E0;-6,624845633E-1;-1,330286468E1;3,006587535E1;3,288406840E1
5,081183750E0;4,046117549E-1;-1,335496571E1;3,053996291E1;3,333478895E1
5,091155750E0;1,464539679E0;-1,307119097E1;3,088906976E1;3,357283932E1
5,101127750E0;2,481227371E0;-1,288805852E1;3,094837923E1;3,361637575E1
5,111099750E0;2,851836470E0;-1,278733204E1;3,066847536E1;3,334972583E1
5,121071750E0;2,798641718E0;-1,266276296E1;3,045230613E1;3,309865421E1
5,131043750E0;2,169562005E0;-1,264344493E1;2,999038078E1;3,261880804E1
5,141015750E0;9,749114551E-1;-1,266885576E1;2,940625095E1;3,203401245E1
5,150987750E0;-4,561217780E-1;-1,254768157E1;2,930165596E1;3,187851003E1
5,160959750E0;-2,046127283E0;-1,267240151E1;3,007180208E1;3,269693682E1
5,170930750E0;-3,326839419E0;-1,407591219E1;3,081910665E1;3,404433138E1
5,180902750E0;-4,383489467E0;-1,592013220E1;3,185349313E1;3,587911111E1
5,190874750E0;-5,136004779E0;-1,703140255E1;3,294375093E1;3,743979091E1
5,200846750E0;-5,204248218E0;-1,890032236E1;3,371691656E1;3,900175441E1
5,210818750E0;-4,191597590E0;-2,061750458E1;3,408588990E1;4,005619648E1
5,220790750E0;-3,044893112E0;-2,134533558E1;3,389583200E1;4,017240536E1
5,230762750E0;-1,360339811E0;-2,147398602E1;3,359167388E1;3,989214402E1
5,240734750E0;9,578063759E-1;-2,118489734E1;3,328354433E1;3,946532138E1
5,250706750E0;3,083091510E0;-2,054991779E1;3,289315146E1;3,890712001E1
5,260678750E0;5,208707305E0;-1,965603522E1;3,246978031E1;3,831157770E1
5,270650750E0;7,322726609E0;-1,917257807E1;3,183751386E1;3,787924714E1
5,280622750E0;9,106560076E0;-1,861122315E1;3,092111951E1;3,722126671E1
5,290594750E0;1,048158429E1;-1,778419414E1;2,942160574E1;3,594123057E1
5,300566750E0;1,147155182E1;-1,681065963E1;2,774066221E1;3,440551000E1
5,310538750E0;1,244766027E1;-1,607088394E1;2,565161812E1;3,272954429E1
5,320510750E0;1,315789817E1;-1,505396777E1;2,331355281E1;3,071276566E1
5,330482750E0;1,410922495E1;-1,321096983E1;2,122648274E1;2,870824833E1
5,340454750E0;1,534790847E1;-1,141115710E1;1,916319563E1;2,707398876E1
5,350426750E0;1,606684702E1;-9,721140448E0;1,685131766E1;2,523115241E1
5,360398750E0;1,612655879E1;-7,604690457E0;1,495219698E1;2,326940932E1
5,370370750E0;1,611525378E1;-5,873901175E0;1,339991442E1;2,176607052E1
5,380342750E0;1,627841449E1;-4,867061511E0;1,175611709E1;2,066110730E1
5,390314750E0;1,570723975E1;-3,522716466E0;9,791956662E0;1,884169120E1
5,400286750E0;1,492387190E1;-1,615954059E0;8,163689536E0;1,708739555E1
5,410258750E0;1,388270265E1;-7,943454158E-1;7,166663253E0;1,564357630E1
5,420230750E0;1,317434404E1;-3,037687004E-1;6,482203977E0;1,468586343E1
5,430202750E0;1,241934922E1;2,792630196E-3;6,158039019E0;1,386223963E1
5,440174750E0;1,189281330E1;2,110260129E-2;5,892774818E0;1,327268807E1
5,450146750E0;1,105138727E1;3,915295601E-2;5,587610972E0;1,238370259E1
5,460118750E0;1,009929684E1;1,813648421E-1;5,048804668E0;1,129243634E1
5,470090750E0;9,037976330E0;3,923399842E-1;4,472471518E0;1,009167718E1
5,480063000E0;8,043452071E0;4,782408446E-1;3,978069554E0;8,986148947E0
5,490035000E0;7,283932087E0;3,835083497E-1;3,604317868E0;8,135960459E0
5,500007000E0;6,645676923E0;3,252542943E-1;3,370057359E0;7,458424682E0
5,509979000E0;6,073468984E0;1,512721467E-1;3,175580136E0;6,855232889E0
5,519951000E0;5,458727229E0;-4,896049082E-2;2,857614981E0;6,161660772E0
5,529923000E0;4,920821981E0;-3,469813782E-1;2,329365240E0;5,455348519E0
5,539895000E0;4,486937822E0;-8,039284176E-1;1,610694489E0;4,834588778E0
5,549867000E0;3,926284858E0;-9,508554983E-1;7,918667811E-1;4,116660292E0
5,559839000E0;3,279690396E0;-8,720917493E-1;1,534052110E-1;3,397123234E0
5,569811000E0;2,635966916E0;-5,992133045E-1;-2,203026205E-1;2,712178352E0
5,579783000E0;2,077655762E0;-4,392212051E-1;-3,013906378E-1;2,144855485E0
5,589755000E0;1,633181565E0;-1,789411712E-1;-6,495671868E-3;1,642968095E0
5,599727000E0;1,441378419E0;-2,040765971E-1;4,825514120E-1;1,533647571E0
5,609699000E0;1,289322746E0;-2,708132082E-1;1,005281966E0;1,657191832E0
5,619670000E0;1,205451892E0;-3,720846444E-1;1,446738562E0;1,919534765E0
5,629642000E0;1,199684053E0;-5,502282554E-1;1,556230014E0;2,040550126E0
5,639614000E0;1,238349790E0;-6,173080981E-1;1,434480459E0;1,993066400E0
5,649586000E0;1,361806293E0;-6,645290422E-1;1,153287274E0;1,904254910E0
5,659558000E0;1,516519526E0;-6,654289287E-1;9,124486470E-1;1,890817195E0
5,669530000E0;1,726868870E0;-6,111387008E-1;8,406220347E-1;2,015492994E0
5,679502000E0;1,905930347E0;-6,184366107E-1;8,528894931E-1;2,177717800E0
5,689474000E0;1,973968256E0;-6,405876178E-1;9,562963325E-1;2,285039573E0
5,699446000E0;1,986755532E0;-7,940407759E-1;1,002581722E0;2,362809431E0
5,709418000E0;1,913515648E0;-9,977297026E-1;9,933694339E-1;2,375666123E0
5,719390000E0;1,860718360E0;-1,197120341E0;9,487890923E-1;2,407399150E0
5,729362000E0;1,859055997E0;-1,269469110E0;8,980574799E-1;2,423664221E0
5,739334000E0;1,811387010E0;-1,182478913E0;7,916223675E-1;2,303485457E0
5,749306000E0;1,689876899E0;-9,176333731E-1;6,620907533E-1;2,033740176E0
5,759278000E0;1,595103912E0;-6,699195904E-1;6,167561209E-1;1,836719047E0
5,769250000E0;1,576942167E0;-4,776298106E-1;6,729928869E-1;1,779830402E0
5,779222000E0;1,513027130E0;-3,122208506E-1;7,566326290E-1;1,720240068E0
5,789194000E0;1,477027724E0;-2,503064382E-1;8,607768023E-1;1,727773398E0
5,799166000E0;1,310709814E0;-2,243722826E-1;8,992204911E-1;1,605272759E0
5,809138000E0;1,129689373E0;-1,907022607E-1;8,576169670E-1;1,431108764E0
5,819110000E0;1,006205095E0;-1,554821420E-1;8,119794488E-1;1,302280314E0
5,829082000E0;1,045346211E0;-1,015667206E-1;8,343321848E-1;1,341333178E0
5,839054000E0;1,164089127E0;-8,954426050E-2;9,453117532E-1;1,502243649E0
5,849026000E0;1,265960780E0;-3,598318040E-2;1,019494793E0;1,625829364E0
5,858998000E0;1,333689810E0;3,071250021E-2;9,963047361E-1;1,665020989E0
5,868970000E0;1,393197947E0;1,143820632E-1;9,664225405E-1;1,699428228E0
5,878942000E0;1,534048748E0;1,897614437E-1;9,235022235E-1;1,800603044E0
5,888914000E0;1,744166542E0;2,739736283E-1;8,759082270E-1;1,970886525E0
5,898886000E0;1,943830537E0;3,190989304E-1;7,429980916E-1;2,105314098E0
5,908858000E0;2,051174600E0;3,868015015E-1;5,599749792E-1;2,161135030E0
5,918830000E0;2,048478887E0;4,416957468E-1;3,408716226E-1;2,123100173E0
5,928802000E0;2,013654040E0;4,923712260E-1;1,789821017E-1;2,080688975E0
5,938774000E0;1,933233190E0;4,801172161E-1;1,215992814E-1;1,995667681E0
5,948746000E0;1,923435742E0;3,931545013E-1;1,473188442E-1;1,968725059E0
5,958718000E0;1,963688559E0;2,995703995E-1;2,225391805E-1;1,998834377E0
5,968690000E0;1,979469755E0;2,552853423E-1;2,730602932E-1;2,014456017E0
5,978662000E0;1,972883744E0;1,806701928E-1;3,036792380E-1;2,004278690E0
5,988634000E0;1,942111895E0;1,379615450E-1;3,239836943E-1;1,973777453E0
5,998606000E0;1,859342803E0;1,362436330E-1;3,291842079E-1;1,893166720E0
6,008578000E0;1,753388770E0;1,204257452E-1;3,373141766E-1;1,789596433E0
6,018550000E0;1,665803327E0;1,011995155E-1;3,455365312E-1;1,704270389E0
6,028522000E0;1,592998475E0;8,275622785E-2;3,301361346E-1;1,628951382E0
6,038494000E0;1,560730177E0;4,079602361E-2;3,405155271E-1;1,597965527E0
6,048466000E0;1,513819574E0;3,559200168E-2;4,017744666E-1;1,566633083E0
6,058438000E0;1,519234534E0;1,781003416E-2;4,840073687E-1;1,594570130E0
6,068410000E0;1,520752325E0;-1,878885806E-2;5,471871185E-1;1,616308881E0
6,078382000E0;1,542971014E0;6,339551210E-3;5,854355103E-1;1,650313448E0
6,088354000E0;1,615890909E0;2,220538616E-2;5,288642836E-1;1,700380528E0
6,098326000E0;1,617702523E0;1,118385243E-1;4,216321957E-1;1,675482921E0
6,108298000E0;1,692124568E0;1,303630883E-1;3,761385190E-1;1,738321108E0
6,118270000E0;1,790217750E0;1,468715322E-1;3,780599141E-1;1,835587138E0
6,128242000E0;1,839618975E0;1,493197614E-1;3,582647502E-1;1,880119144E0
6,138214000E0;1,881504043E0;1,503038478E-1;3,547178292E-1;1,920539884E0
6,148186000E0;1,920652175E0;1,008732408E-1;3,440092385E-1;1,953822546E0
6,158158000E0;1,932208612E0;9,491960585E-2;3,149988627E-1;1,960016361E0
6,168130000E0;1,965766659E0;1,120151103E-1;2,533440667E-1;1,985187437E0
6,178102000E0;1,985972590E0;1,891118181E-1;1,566664955E-1;2,001098398E0
6,188074000E0;2,005878266E0;2,547403818E-1;8,118917406E-2;2,023618532E0
6,198046000E0;2,081948642E0;2,459373987E-1;7,396201551E-2;2,097728708E0
6,208018000E0;2,136490738E0;1,716765904E-1;9,116569340E-2;2,145315061E0
6,217990000E0;2,171825463E0;9,723802686E-2;1,215782315E-1;2,177398067E0
6,227962000E0;2,188359050E0;8,048692346E-3;1,001742062E-1;2,190665420E0
6,237934000E0;2,169484237E0;-2,127801776E-3;1,194790810E-2;2,169518181E0
6,247906000E0;2,174568099E0;-8,121782541E-4;-7,935724139E-2;2,176015774E0
6,257878000E0;2,219660949E0;-7,333811760E-2;-1,348569658E-1;2,224962833E0
6,267850000E0;2,274864658E0;-1,267629576E-1;-1,340649605E-1;2,282334654E0
6,277822000E0;2,326128660E0;-1,368453115E-1;-1,194644630E-1;2,333210865E0
6,287794000E0;2,398346158E0;-2,267094147E-1;-9,948043406E-2;2,411090585E0
6,297766000E0;2,537521439E0;-2,631901932E-1;-1,005709398E-1;2,553115478E0
6,307738000E0;2,744335703E0;-3,142948580E-1;-1,036337113E-1;2,764217729E0
6,317710000E0;2,976524836E0;-3,669841182E-1;-8,947321683E-2;3,000397123E0
6,327682000E0;3,223536075E0;-4,836319774E-1;-6,301281184E-2;3,260223203E0
6,337653000E0;3,493806954E0;-5,876896119E-1;1,234347224E-2;3,542911017E0
6,347626000E0;3,802539064E0;-7,100461078E-1;7,857020617E-2;3,869062171E0
6,357597000E0;4,126120762E0;-8,824144238E-1;1,527602631E-1;4,222187046E0
6,367569000E0;4,569337662E0;-1,130820517E0;2,813493061E-1;4,715586829E0
6,377541000E0;5,136336316E0;-1,433684653E0;4,245897174E-1;5,349549408E0
6,387513000E0;5,727148342E0;-1,667991940E0;5,125452894E-1;5,987080082E0
6,397485000E0;6,370208747E0;-1,906254868E0;5,683324045E-1;6,673557434E0
6,407457000E0;7,045543444E0;-2,179400530E0;5,347962838E-1;7,394286724E0
6,417429000E0;7,612559055E0;-2,391522896E0;4,128695583E-1;7,990049962E0
6,427401000E0;8,147697986E0;-2,590872020E0;2,602379340E-1;8,553673133E0
6,437373000E0;8,638940699E0;-2,882985465E0;8,777781665E-2;9,107722357E0
6,447345000E0;9,112179251E0;-3,103382810E0;-5,996027291E-2;9,626338390E0
6,457317000E0;9,526156856E0;-3,297953589E0;-1,920593995E-1;1,008271041E1
6,467289000E0;9,910526501E0;-3,487934303E0;-2,879701084E-1;1,051033529E1
6,477261000E0;1,033645289E1;-3,700574732E0;-2,443709296E-1;1,098163143E1
6,487232292E0;1,068559716E1;-3,963490691E0;-6,963916898E-2;1,139719679E1
6,497204292E0;1,100627951E1;-4,238654228E0;2,535949123E-1;1,179697795E1
6,507176292E0;1,127324584E1;-4,588155171E0;6,197241676E-1;1,218693143E1
6,517148292E0;1,149541781E1;-4,921910148E0;1,058589277E0;1,254951957E1
6,527120292E0;1,174473841E1;-5,296738890E0;1,629638298E0;1,298653318E1
6,537092292E0;1,201493708E1;-5,703347835E0;2,334079850E0;1,350314105E1
6,547064292E0;1,211611846E1;-6,038295643E0;3,147019411E0;1,389838379E1
6,557036292E0;1,235205479E1;-6,550972495E0;4,044401538E0;1,455491951E1
6,567008292E0;1,255745110E1;-7,199562612E0;4,943479357E0;1,529579250E1
6,576980292E0;1,261763766E1;-7,675980295E0;5,825927110E0;1,587661426E1
6,586952292E0;1,283156506E1;-8,300765812E0;6,754943258E0;1,670871130E1
6,596924292E0;1,301852276E1;-8,772370067E0;7,747558985E0;1,750602987E1
6,606896292E0;1,315699068E1;-8,899827089E0;8,927160484E0;1,822107352E1
6,616868292E0;1,326632776E1;-8,751539946E0;1,043663324E1;1,901336943E1
6,626840292E0;1,386380678E1;-8,775860270E0;1,233054522E1;2,052469750E1
6,636812292E0;1,447140850E1;-8,897916804E0;1,418294431E1;2,213030720E1
6,646784292E0;1,471018306E1;-8,579047084E0;1,615692572E1;2,347415139E1
6,656756292E0;1,477876038E1;-8,337126138E0;1,796025848E1;2,470810222E1
6,666728292E0;1,464451766E1;-8,407565206E0;1,949741429E1;2,579337540E1
6,676700292E0;1,423406651E1;-8,376398377E0;2,084557406E1;2,659531269E1
6,686672292E0;1,324257637E1;-8,333849359E0;2,204932631E1;2,703685753E1
6,696644292E0;1,195281509E1;-8,076329210E0;2,278368748E1;2,696652179E1
6,706616292E0;1,078918643E1;-7,902255846E0;2,309740464E1;2,668974133E1
6,716588292E0;9,288761655E0;-7,975589871E0;2,304151695E1;2,609219481E1
6,726560292E0;7,922805301E0;-7,756827407E0;2,318812068E1;2,570268772E1
6,736532292E0;6,766047705E0;-7,665745329E0;2,339100971E1;2,552807059E1
6,746504292E0;5,785401227E0;-7,763062878E0;2,361148014E1;2,551936534E1
6,756476292E0;4,507665032E0;-7,962680973E0;2,358793691E1;2,530047628E1
6,766448292E0;2,814168999E0;-7,546886052E0;2,350439424E1;2,484615835E1
6,776420292E0;1,072090791E0;-6,913812107E0;2,337871652E1;2,440316706E1
6,786392292E0;-7,869606748E-1;-6,991435649E0;2,318680155E1;2,423070873E1
6,796364292E0;-1,972976569E0;-6,852525101E0;2,355622629E1;2,461189822E1
6,806336292E0;-3,144338171E0;-6,576736497E0;2,377660785E1;2,486900493E1
6,816308292E0;-4,394478724E0;-7,136773456E0;2,376255816E1;2,519730440E1
6,826280292E0;-5,512766612E0;-7,696794044E0;2,355700982E1;2,538826394E1
6,836252292E0;-6,803923044E0;-7,890099485E0;2,293081045E1;2,518668510E1
6,846224292E0;-8,219390112E0;-8,036352382E0;2,194807359E1;2,477618348E1
6,856196292E0;-9,259083527E0;-8,283764448E0;2,080770983E1;2,423452433E1
6,866168292E0;-9,991927929E0;-8,409173191E0;1,953863366E1;2,350129832E1
6,876140292E0;-1,064656231E1;-8,425899736E0;1,795028781E1;2,250684136E1
6,886112292E0;-1,118993354E1;-8,795037968E0;1,634389512E1;2,167233751E1
6,896084292E0;-1,136858235E1;-9,105834437E0;1,482130706E1;2,078056853E1
6,906056292E0;-1,140559055E1;-9,615931497E0;1,359274507E1;2,018207999E1
6,916028292E0;-1,122339949E1;-9,773939636E0;1,246968556E1;1,941616981E1
6,926000292E0;-1,079231469E1;-1,067398809E1;1,196414933E1;1,932741440E1
6,935972292E0;-1,030890081E1;-1,172597119E1;1,119470487E1;1,921179984E1
6,945944292E0;-9,804141090E0;-1,151085914E1;1,032769844E1;1,831071860E1
6,955916292E0;-9,476219881E0;-1,153521279E1;9,757133569E0;1,783427971E1
6,965888292E0;-8,890156964E0;-1,194801101E1;9,083756520E0;1,744432545E1
6,975860292E0;-8,519045296E0;-1,200905244E1;8,590433367E0;1,704661311E1
6,985832292E0;-8,929935572E0;-1,165416504E1;7,697369410E0;1,657747894E1
6,995804292E0;-8,638171790E0;-1,098318769E1;6,754723402E0;1,552013891E1
7,005776292E0;-8,019649810E0;-1,067140713E1;5,842367141E0;1,457144355E1
7,015748292E0;-7,712092114E0;-1,046066763E1;4,562850761E0;1,377394421E1
7,025720292E0;-7,780933723E0;-9,958757844E0;3,622014759E0;1,314681628E1
7,035692292E0;-7,692187607E0;-9,366022085E0;3,018894053E0;1,249022983E1
7,045664292E0;-6,906175643E0;-9,381026040E0;2,702535127E0;1,195836978E1
7,055636292E0;-5,964556407E0;-9,876101604E0;2,260465597E0;1,175682869E1
7,065608292E0;-2,507802381E0;-6,136294978E0;2,692665027E0;7,154972661E0
7,075580292E0;-3,782336934E0;-1,016561596E1;3,023544928E0;1,126000198E1
7,085552292E0;-5,136315851E0;-1,372840866E1;4,598028195E-1;1,466500472E1
7,095524292E0;-3,974845399E0;-1,311916621E1;-1,017090565E0;1,374577721E1
7,105496292E0;-2,564084170E0;-1,245279997E1;-1,446706548E0;1,279608200E1
7,115468292E0;-2,016701170E0;-1,208309339E1;-1,763730594E0;1,237654940E1
7,125440292E0;-2,157109190E0;-1,228311027E1;-2,450334191E0;1,270952617E1
7,135412292E0;-2,045178280E0;-1,260257406E1;-3,616216367E0;1,326968907E1
7,145384292E0;-2,192437482E0;-1,249691020E1;-4,404798768E0;1,343062913E1
7,155356292E0;-2,193249661E0;-1,192787086E1;-4,689652310E0;1,300297221E1
7,165328292E0;-1,416797602E0;-1,118034995E1;-4,557414604E0;1,215637974E1
7,175300292E0;-4,577785134E-1;-1,063062163E1;-4,291186783E0;1,147318445E1
7,185272292E0;-6,440789902E-1;-1,200552189E1;-4,665626686E0;1,289633537E1
7,195244292E0;-1,282499045E-1;-1,262265340E1;-4,187240245E0;1,329965442E1
7,205216292E0;-5,601349005E-1;-1,280752365E1;-5,551975701E0;1,397035602E1
7,215188292E0;-4,423988745E-1;-1,210945966E1;-6,610733963E0;1,380349715E1
7,225160292E0;-5,994220501E-1;-1,203593443E1;-6,771920648E0;1,382323890E1
7,235132292E0;-8,447872987E-1;-1,242659860E1;-6,451320738E0;1,402688695E1
7,245104292E0;-4,777850541E-1;-1,224184997E1;-5,507619892E0;1,343223906E1
7,255076292E0;-3,850800812E-2;-1,223816506E1;-4,757687588E0;1,313048963E1
7,265048292E0;3,923876390E-1;-1,223366387E1;-4,620798422E0;1,308312951E1
7,275020292E0;9,025044335E-1;-1,241311960E1;-3,956793290E0;1,305971920E1
7,284992292E0;1,739476198E0;-1,265311506E1;-3,495927447E0;1,324192610E1
7,294964292E0;2,597867044E0;-1,286549645E1;-3,313011923E0;1,353683716E1
7,304936292E0;3,263879524E0;-1,320163534E1;-2,636675599E0;1,385236959E1
7,314908292E0;3,498680316E0;-1,344066835E1;-2,058897602E0;1,404034860E1
7,324880292E0;3,615969615E0;-1,356793299E1;-1,862830521E0;1,416453951E1
7,334852292E0;3,776341199E0;-1,397191478E1;-1,560056432E0;1,455709214E1
7,344824292E0;3,589496931E0;-1,445579059E1;-1,553956763E0;1,497561857E1
7,354796292E0;3,320053433E0;-1,476406048E1;-1,779957056E0;1,523707596E1
7,364768292E0;3,353996227E0;-1,524243756E1;-1,476987670E0;1,567682003E1
7,374740292E0;3,738662618E0;-1,587318724E1;-1,518055882E0;1,637803911E1
7,384712292E0;4,144886523E0;-1,645215164E1;-1,938839647E0;1,707666469E1
7,394684292E0;4,630609758E0;-1,717720638E1;-2,161675573E0;1,792126689E1
7,404656292E0;5,406615089E0;-1,840594378E1;-2,776509714E0;1,938347903E1
7,414628292E0;6,006811895E0;-1,977362039E1;-3,311783423E0;2,092954280E1
7,424600292E0;6,594240721E0;-2,121974675E1;-3,367730460E0;2,247450269E1
7,434572292E0;7,736893079E0;-2,293597939E1;-3,439530467E0;2,444890662E1
7,444544292E0;8,752231672E0;-2,372219366E1;-3,533187659E0;2,553091159E1
7,454516292E0;9,431489850E0;-2,381353185E1;-3,887536529E0;2,590656751E1
7,464488292E0;1,045189798E1;-2,402418364E1;-4,108712139E0;2,651952274E1
7,474460292E0;1,187163234E1;-2,454303281E1;-4,294502154E0;2,759961708E1
7,484432042E0;1,379494296E1;-2,544001674E1;-4,974633322E0;2,936395545E1
7,494404042E0;1,531493602E1;-2,629709694E1;-5,229466090E0;3,087769240E1
7,504376042E0;1,622678357E1;-2,640895417E1;-5,421783351E0;3,146644404E1
7,514348042E0;1,663468534E1;-2,712969835E1;-5,574068236E0;3,230794833E1
7,524320042E0;1,682412109E1;-2,704624922E1;-5,089850952E0;3,225611927E1
7,534292042E0;1,741894080E1;-2,644278148E1;-5,132140355E0;3,207770341E1
7,544264042E0;1,966927566E1;-2,711170062E1;-5,399269817E0;3,392752319E1
7,554236042E0;2,318781429E1;-2,773775264E1;-5,777649574E0;3,661200469E1
7,564208042E0;2,667981591E1;-2,847496023E1;-5,954489840E0;3,947267266E1
7,574180042E0;3,031888203E1;-2,913262231E1;-6,038569293E0;4,247833105E1
7,584152042E0;3,392293034E1;-3,029847057E1;-6,264274156E0;4,591300091E1
7,594124042E0;3,657135417E1;-3,224426957E1;-5,881005542E0;4,910950103E1
7,604096042E0;3,893584421E1;-3,439681442E1;-4,514748057E0;5,214905327E1
7,614068042E0;4,138555392E1;-3,725358858E1;-2,904780377E0;5,575869156E1
7,624040042E0;4,400157949E1;-3,990202176E1;-5,199197978E-1;5,940185733E1
7,634012042E0;4,718409735E1;-4,255736401E1;2,457790561E0;6,358859181E1
7,643984042E0;4,957839651E1;-4,440441991E1;6,965983889E0;6,692006305E1
7,653956042E0;5,187004662E1;-4,507382319E1;1,186110736E1;6,973404578E1
7,663928042E0;5,335926696E1;-4,531061671E1;1,695708678E1;7,202642674E1
7,673900042E0;5,264737547E1;-4,378689312E1;2,327201419E1;7,232305855E1
7,683872042E0;5,236986194E1;-4,113843188E1;2,791394328E1;7,220914932E1
7,693844042E0;4,981302422E1;-3,785915663E1;3,103668154E1;6,984217010E1
7,703816042E0;4,728059980E1;-3,498942973E1;3,186041390E1;6,689395551E1
7,713788042E0;4,361227655E1;-3,230189973E1;3,183508376E1;6,291991696E1
7,723760042E0;3,989762465E1;-3,080095222E1;3,226476757E1;5,984592164E1
7,733732042E0;3,706526379E1;-2,874167747E1;3,214769228E1;5,686292221E1
7,743704042E0;3,489307697E1;-2,684438229E1;3,234306179E1;5,462802694E1
7,753676042E0;3,322180475E1;-2,655459896E1;3,344342124E1;5,410450499E1
7,763648042E0;3,204097826E1;-2,625074021E1;3,475717365E1;5,407205165E1
7,773620042E0;3,061841618E1;-2,614866888E1;3,642790559E1;5,429762977E1
7,783592042E0;2,926581720E1;-2,596675030E1;3,712014576E1;5,393204427E1
7,793564042E0;2,765268735E1;-2,584859445E1;3,708970749E1;5,299497480E1
7,803536042E0;2,595160601E1;-2,627610309E1;3,646160193E1;5,189766723E1
7,813508042E0;2,453526303E1;-2,699103747E1;3,495598366E1;5,052144128E1
7,823480042E0;2,317508373E1;-2,811389701E1;3,266766412E1;4,893518151E1
7,833452042E0;2,119265309E1;-2,985203799E1;3,004064812E1;4,735729360E1
7,843424042E0;1,853258044E1;-3,130849287E1;2,675494094E1;4,516088051E1
7,853396042E0;1,553789386E1;-3,252333612E1;2,325339900E1;4,289421993E1
7,863368042E0;1,324816280E1;-3,317754132E1;2,026557237E1;4,107257588E1
7,873340042E0;1,182517972E1;-3,395429714E1;1,739630623E1;3,994196591E1
7,883312042E0;1,064882986E1;-3,406770974E1;1,456590886E1;3,855090304E1
7,893284042E0;9,635688069E0;-3,344310549E1;1,195785422E1;3,680051721E1
7,903256042E0;8,549638513E0;-3,204884627E1;9,887221838E0;3,461187689E1
7,913228042E0;7,865777407E0;-3,115280023E1;8,999442594E0;3,336701041E1
7,923200042E0;8,119412080E0;-3,088804065E1;8,308443791E0;3,300039614E1
7,933172042E0;8,647644280E0;-3,000490994E1;7,082970886E0;3,201944485E1
7,943144042E0;8,537068169E0;-2,888002025E1;6,266762146E0;3,076051707E1
7,953116042E0;7,781523707E0;-2,702500278E1;5,621179837E0;2,867927037E1
7,963088042E0;7,176355598E0;-2,520666840E1;5,116730018E0;2,670312973E1
7,973060042E0;7,622982302E0;-2,422062904E1;4,516232665E0;2,579040689E1
7,983032042E0;7,996771994E0;-2,327327485E1;4,094223908E0;2,494707105E1
7,993004042E0;8,019804177E0;-2,252456929E1;4,216999065E0;2,427872653E1
8,002976042E0;8,082821959E0;-2,161213936E1;4,509777339E0;2,351073521E1
8,012948042E0;8,504074670E0;-2,080332676E1;4,637225590E0;2,294780058E1
8,022920042E0;8,636455632E0;-2,009390981E1;4,905157875E0;2,241459683E1
8,032892042E0;8,610930197E0;-1,954980067E1;5,112277948E0;2,196538665E1
8,042864042E0;8,461072492E0;-1,908715025E1;5,382276639E0;2,156102860E1
8,052836042E0;8,177756183E0;-1,874106058E1;5,609621061E0;2,120308695E1
8,062808042E0;8,042291399E0;-1,840337335E1;5,651104717E0;2,086378647E1
8,072780042E0;8,043264960E0;-1,834186882E1;5,767764856E0;2,084191389E1
8,082752042E0;8,288767911E0;-1,855621606E1;5,877811793E0;2,115621656E1
8,092724042E0;8,587876380E0;-1,892168458E1;5,844031259E0;2,158551527E1
8,102696042E0;8,964072787E0;-1,935875108E1;5,811666920E0;2,211088684E1
8,112668042E0;9,190652978E0;-1,991238885E1;5,870651293E0;2,270321295E1
8,122640042E0;9,217699274E0;-2,043177129E1;5,873710556E0;2,317161482E1
8,132612042E0;9,283635986E0;-2,112709177E1;5,949387560E0;2,383138930E1
8,142584042E0;9,388905748E0;-2,188165624E1;5,872543452E0;2,452437965E1
8,152556042E0;9,707584848E0;-2,290519496E1;5,713955269E0;2,552517277E1
8,162528042E0;9,989799542E0;-2,403090560E1;5,561352296E0;2,661219942E1
8,172500042E0;9,854016670E0;-2,479771882E1;5,523721955E0;2,724958729E1
8,182472042E0;9,896953944E0;-2,568749898E1;5,368342724E0;2,804668260E1
8,192444042E0;1,020698267E1;-2,693146604E1;5,387650230E0;2,930039477E1
8,202416042E0;1,064173017E1;-2,833859147E1;5,135192016E0;3,070329599E1
8,212388042E0;1,105048329E1;-2,981368260E1;4,867588930E0;3,216616659E1
8,222360042E0;1,150686666E1;-3,097612544E1;4,865809622E0;3,340066513E1
8,232332042E0;1,240421663E1;-3,187211067E1;4,599725057E0;3,450874526E1
8,242304042E0;1,427415502E1;-3,314008406E1;4,182093526E0;3,632501314E1
8,252276042E0;1,639920627E1;-3,447066242E1;3,798012149E0;3,836124907E1
8,262248042E0;1,820575734E1;-3,626309129E1;3,314210895E0;4,071173522E1
8,272220042E0;1,975388487E1;-3,703620313E1;3,042817351E0;4,208509293E1
8,282192042E0;2,147887897E1;-3,688735407E1;2,408891173E0;4,275303368E1
8,292164042E0;2,287956311E1;-3,657316914E1;2,170734372E0;4,319471260E1
8,302136042E0;2,475598841E1;-3,568516419E1;1,896244435E0;4,347281505E1
8,312108042E0;2,684912321E1;-3,404454307E1;1,054343029E0;4,337070404E1
8,322080042E0;2,940546274E1;-3,312814404E1;-1,736985576E-1;4,429656125E1
8,332052042E0;3,091789887E1;-3,106150648E1;-1,107757344E0;4,384017315E1
8,342024042E0;3,213944771E1;-2,882811101E1;-2,807265192E0;4,326528425E1
8,351996042E0;3,368100998E1;-2,816723297E1;-4,541568065E0;4,414101592E1
8,361968042E0;3,421101798E1;-2,671094883E1;-5,204534732E0;4,371447952E1
8,371940042E0;3,505947704E1;-2,615583522E1;-5,311538193E0;4,406253606E1
8,381912042E0;3,684036819E1;-2,558018854E1;-5,396811063E0;4,517393433E1
8,391884042E0;4,088448496E1;-2,518592248E1;-6,907063835E0;4,851370253E1
8,401856042E0;4,522679103E1;-2,483703082E1;-8,037100825E0;5,222007005E1
8,411828042E0;4,874379769E1;-2,308739187E1;-8,464705367E0;5,459520779E1
8,421800042E0;5,241099827E1;-1,996543947E1;-9,418351157E0;5,687035125E1
8,431772042E0;5,648730280E1;-1,787016692E1;-9,112733567E0;5,994330785E1
8,441744042E0;5,776996206E1;-1,597512526E1;-6,296511025E0;6,026789522E1
8,451716042E0;5,709232590E1;-1,476894875E1;-2,878980707E0;5,904188389E1
8,461688042E0;5,527091822E1;-1,444397220E1;1,399847401E0;5,714422374E1
8,471660042E0;5,211528352E1;-1,362803302E1;5,661177716E0;5,416433322E1
8,481635667E0;4,872504450E1;-1,238944539E1;9,999179646E0;5,126023714E1
8,491607667E0;4,584189940E1;-1,023589248E1;1,461921325E1;4,919323766E1
8,501579667E0;4,253658534E1;-7,653760291E0;1,687379904E1;4,639683430E1
8,511551667E0;3,973223732E1;-6,420379611E0;1,803587000E1;4,410401981E1
8,521523667E0;3,669815688E1;-6,449402851E0;1,750410082E1;4,116725715E1
8,531495667E0;3,293481638E1;-7,034429641E0;1,602264090E1;3,729491054E1
8,541467667E0;2,908808290E1;-8,302660895E0;1,483185427E1;3,369027524E1
8,551439667E0;2,527587137E1;-9,552857582E0;1,429857183E1;3,057083443E1
8,561411667E0;2,191273302E1;-1,079509796E1;1,331220151E1;2,781935868E1
8,571383667E0;1,857744847E1;-1,254803123E1;1,271483593E1;2,577288754E1
8,581355667E0;1,536833513E1;-1,386621233E1;1,227782087E1;2,406662532E1
8,591327667E0;1,287674883E1;-1,494957860E1;1,149768302E1;2,283631485E1
8,601299667E0;1,102766161E1;-1,665989736E1;1,036356994E1;2,250700075E1
8,611271667E0;9,460589104E0;-1,668873232E1;9,430949568E0;2,137660736E1
8,621243667E0;8,985926170E0;-1,888441442E1;8,959703747E0;2,275179704E1
8,631215667E0;8,321332224E0;-1,913892618E1;8,368008792E0;2,248480901E1
8,641187667E0;7,070002931E0;-1,896326530E1;7,516745410E0;2,158916010E1
8,651159667E0;5,412524285E0;-1,914189773E1;6,265873370E0;2,085590653E1
8,661131667E0;4,356151688E0;-1,942902058E1;5,443480614E0;2,064205366E1
8,671103667E0;3,880816324E0;-1,951812513E1;5,165075966E0;2,055957085E1
8,681075667E0;2,868343452E0;-1,847823525E1;4,141787499E0;1,915272763E1
8,691047667E0;1,733551506E0;-1,797556181E1;1,585188934E0;1,812839892E1
8,701019667E0;4,232992369E-1;-1,806835011E1;-8,171928263E-1;1,809177333E1
8,710991667E0;-1,257407473E0;-1,790184597E1;-1,951893556E0;1,805178803E1
8,720963667E0;-3,320406897E0;-1,757613734E1;-3,623692617E0;1,825039326E1
8,730935667E0;-5,331992338E0;-1,696212474E1;-4,969921051E0;1,846195908E1
8,740907667E0;-6,768331627E0;-1,620623412E1;-5,627711177E0;1,844243667E1
8,750879667E0;-7,063091522E0;-1,604461825E1;-5,642943174E0;1,841629290E1
8,760851667E0;-7,303660592E0;-1,612264700E1;-4,689493558E0;1,831050393E1
8,770823667E0;-7,570337480E0;-1,590081533E1;-2,459769551E0;1,778191227E1
8,780795667E0;-7,249608931E0;-1,560410305E1;-9,468153647E-1;1,723198541E1
8,790767667E0;-6,415869654E0;-1,494026164E1;-2,216612211E-1;1,626111728E1
8,800739667E0;-5,835575016E0;-1,453850998E1;-3,265193394E-1;1,566935937E1
8,810711667E0;-5,602414368E0;-1,419920541E1;-1,136874139E-1;1,526490766E1
8,820683667E0;-4,627603412E0;-1,390888999E1;1,857376823E-1;1,465968733E1
8,830655667E0;-3,973771266E0;-1,377858595E1;1,153421760E-1;1,434062735E1
8,840627667E0;-4,093848809E0;-1,369916790E1;-2,157555333E-1;1,429941781E1
8,850599667E0;-5,289294215E0;-1,348218475E1;-7,399361971E-1;1,450149801E1
8,860571667E0;-6,684731061E0;-1,321344204E1;-1,399988319E0;1,487416038E1
8,870543667E0;-6,998818928E0;-1,320926596E1;-1,302359405E0;1,500547612E1
8,880515667E0;-7,026565136E0;-1,336660167E1;-1,058846847E0;1,513802544E1
8,890487667E0;-7,088422830E0;-1,320521500E1;-1,238292925E0;1,503851093E1
8,900459667E0;-7,161411284E0;-1,309155800E1;-1,831267251E0;1,503423567E1
8,910431667E0;-7,199364976E0;-1,318215242E1;-2,953246485E0;1,530756882E1
8,920403667E0;-6,864839922E0;-1,316731452E1;-3,662709918E0;1,529443176E1
8,930375667E0;-6,992726129E0;-1,326002797E1;-4,882565988E0;1,576597638E1
8,940347667E0;-7,226601892E0;-1,296896995E1;-5,196529309E0;1,572964950E1
8,950319667E0;-6,985487276E0;-1,254004862E1;-5,836369067E0;1,549558181E1
8,960291667E0;-6,450243680E0;-1,247114269E1;-6,327635170E0;1,540045487E1
8,970263667E0;-5,682921172E0;-1,254509359E1;-6,189884709E0;1,509932578E1
8,980235667E0;-5,225709254E0;-1,262709261E1;-5,667432482E0;1,479429944E1
8,990207667E0;-5,197588824E0;-1,290250465E1;-4,821723078E0;1,472204365E1
9,000179667E0;-4,706652797E0;-1,345386902E1;-3,839825881E0;1,476155259E1
9,010151667E0;-3,790158462E0;-1,440763526E1;-3,072304859E0;1,521132184E1
9,020123667E0;-2,371575705E0;-1,386282913E1;-2,650813874E0;1,431185582E1
9,030096667E0;-1,723256314E0;-1,312626005E1;-1,650935904E0;1,334143563E1
9,040068667E0;-1,797992501E0;-1,381994799E1;-9,867959940E-1;1,397131010E1
9,050040667E0;-1,670538402E0;-1,520166727E1;-5,524963903E-1;1,530315780E1
9,060012667E0;-1,131596442E0;-1,659358409E1;-4,785726741E-2;1,663219269E1
9,069984667E0;-8,389362824E-1;-1,733045488E1;-3,377521330E-1;1,735403576E1
9,079956667E0;-1,302975994E-1;-1,698369628E1;-8,473017476E-1;1,700531791E1
9,089928667E0;2,349198411E0;-1,673054693E1;-1,104691649E0;1,693074946E1
9,099900667E0;4,945275621E0;-1,690980151E1;-7,053151987E-1;1,763220371E1
9,109872667E0;6,203218700E0;-1,781974521E1;-8,619936079E-1;1,888825759E1
9,119844667E0;8,161783344E0;-2,024306293E1;-5,962861884E-1;2,183464818E1
9,129816667E0;1,145986323E1;-2,370237160E1;-6,841593146E-2;2,632746789E1
9,139788667E0;1,524947527E1;-2,709973487E1;-7,443014359E-1;3,110459951E1
9,149760667E0;1,939969563E1;-3,015384554E1;-2,124079438E0;3,591816121E1
9,159732667E0;2,540140641E1;-3,151120648E1;-3,272283143E0;4,060659329E1
9,169704667E0;2,952008454E1;-3,090031746E1;-4,175598439E0;4,293833524E1
9,179676667E0;3,238249775E1;-2,980341489E1;-5,455016001E0;4,434666728E1
9,189648667E0;3,491879771E1;-2,834190333E1;-7,541075674E0;4,560102784E1
9,199620667E0;3,648307056E1;-2,716534063E1;-1,104206096E1;4,680702169E1
9,209592667E0;3,792849292E1;-2,604940654E1;-1,432500475E1;4,819074514E1
9,219564667E0;3,884678878E1;-2,484981517E1;-1,699168592E1;4,914573942E1
9,229536667E0;4,035352504E1;-2,451645371E1;-2,039649387E1;5,143423420E1
9,239508667E0;4,345874270E1;-2,404660420E1;-2,439153146E1;5,533397056E1
9,249480667E0;4,564901145E1;-2,136697496E1;-2,957826902E1;5,844017337E1
9,259452667E0;4,756448914E1;-1,744884580E1;-3,349591052E1;6,073564742E1
9,269424667E0;4,809752131E1;-1,330713899E1;-3,660516510E1;6,189014152E1
9,279396667E0;4,712915224E1;-8,928925173E0;-3,738022056E1;6,081252818E1
9,289368667E0;4,515423410E1;-6,003915769E0;-3,843384438E1;5,959959946E1
9,299340667E0;4,223253013E1;-4,725277933E0;-3,876967804E1;5,752393230E1
9,309312667E0;3,871823190E1;-5,136463201E0;-3,867213479E1;5,496379485E1
9,319284667E0;3,544169549E1;-6,321615461E0;-3,800612991E1;5,235019113E1
9,329256667E0;3,158708697E1;-7,869569911E0;-3,787754028E1;4,994379092E1
9,339228667E0;2,685174978E1;-9,077452637E0;-3,724659297E1;4,680518455E1
9,349200667E0;2,244603417E1;-9,674480252E0;-3,527864237E1;4,291855806E1
9,359172667E0;1,811346255E1;-1,003194160E1;-3,261843992E1;3,863547593E1
9,369144667E0;1,465894976E1;-9,975569758E0;-3,032723185E1;3,513029735E1
9,379116667E0;1,084323809E1;-1,005379849E1;-2,771458129E1;3,141261996E1
9,389088667E0;7,226645746E0;-1,076526196E1;-2,301517407E1;2,641616004E1
9,399060667E0;4,992262092E0;-1,176248471E1;-2,023870792E1;2,393499584E1
9,409032667E0;3,572773309E0;-1,130364317E1;-1,797286859E1;2,153046826E1
9,419004667E0;3,067699592E0;-1,026744873E1;-1,606832871E1;1,931378968E1
9,428976667E0;2,744106492E0;-9,965215509E0;-1,528206999E1;1,844931716E1
9,438948667E0;2,377350415E0;-9,992192223E0;-1,388440886E1;1,727056774E1
9,448920667E0;2,019421295E0;-1,020395382E1;-1,303645384E1;1,667776557E1
9,458892667E0;1,328087154E0;-1,010961367E1;-1,217366910E1;1,587974570E1
9,468864667E0;4,087624741E-1;-9,924882585E0;-1,180705570E1;1,542974223E1
9,478836667E0;-3,044268045E-1;-1,000441056E1;-1,195949495E1;1,559520522E1
9,488809167E0;-9,246234271E-1;-9,555244415E0;-1,186673004E1;1,526358104E1
9,498781167E0;-1,651838129E0;-9,041327954E0;-1,205572608E1;1,515964088E1
9,508753167E0;-2,564782913E0;-9,317337583E0;-1,210831243E1;1,549200184E1
9,518725167E0;-4,005421659E0;-9,823027596E0;-1,211593837E1;1,610376467E1
9,528697167E0;-5,822635127E0;-9,943026495E0;-1,242736809E1;1,694716299E1
9,538669167E0;-7,391882797E0;-9,781607675E0;-1,265990250E1;1,762364637E1
9,548641167E0;-8,595391806E0;-9,456192582E0;-1,278158423E1;1,807399330E1
9,558613167E0;-9,309421037E0;-9,098112019E0;-1,308327132E1;1,845570239E1
9,568585167E0;-9,145179182E0;-8,658521270E0;-1,300409768E1;1,810278568E1
9,578557167E0;-8,217984442E0;-8,109520345E0;-1,227037620E1;1,684819636E1
9,588529167E0;-6,864505461E0;-7,624083917E0;-1,157287003E1;1,546542633E1
9,598501167E0;-5,279741035E0;-7,076510882E0;-1,066863906E1;1,384819595E1
9,608473167E0;-3,851004588E0;-6,574336799E0;-9,990809941E0;1,256457019E1
9,618445167E0;-2,705209644E0;-6,028974597E0;-9,557959862E0;1,161986621E1
9,628417167E0;-1,751986316E0;-5,144389102E0;-9,342426231E0;1,080810451E1
9,638389167E0;-1,370314284E0;-4,110926480E0;-9,136656280E0;1,011216919E1
9,648361167E0;-1,411809050E0;-3,432973984E0;-8,990164232E0;9,726333744E0
9,658333167E0;-1,406692444E0;-2,855136346E0;-9,356993399E0;9,883517221E0
9,668305167E0;-1,595106981E0;-2,181891444E0;-9,815412183E0;1,018073342E1
9,678277167E0;-1,897004280E0;-1,481742334E0;-9,815070705E0;1,010592888E1
9,688249167E0;-2,372273278E0;-8,853514802E-1;-9,921109961E0;1,023913818E1
9,698221167E0;-2,807887043E0;-1,509061110E-1;-1,026723121E1;1,064532945E1
9,708193167E0;-2,892381648E0;9,506713110E-1;-1,034503193E1;1,078375320E1
9,718165167E0;-2,670421050E0;1,936940471E0;-1,040912092E1;1,091937202E1
9,728137167E0;-2,148085036E0;3,041559615E0;-1,070665766E1;1,133569020E1
9,738109167E0;-1,526218595E0;3,995294867E0;-1,063169401E1;1,145969641E1
9,748082167E0;-7,289495713E-1;4,554305055E0;-1,060258774E1;1,156234963E1
9,758054167E0;-1,910384756E-1;5,355855995E0;-1,058305687E1;1,186266336E1
9,768026167E0;-2,616032588E-1;6,408760024E0;-1,089147528E1;1,263981309E1
9,777998167E0;-8,331022230E-1;7,577888575E0;-1,154770244E1;1,383719214E1
9,787970167E0;-1,393814536E0;9,046084664E0;-1,192726275E1;1,503442595E1
9,797942167E0;-1,363611328E0;1,018163733E1;-1,238139261E1;1,608800974E1
9,807914167E0;-8,850521759E-1;1,022991428E1;-1,260997196E1;1,626179130E1
9,817886167E0;-3,978914038E-1;9,957818781E0;-1,269247851E1;1,613739394E1
9,827858167E0;-1,241831660E-1;1,030905050E1;-1,307977001E1;1,665449871E1
9,837830167E0;3,089671674E-1;1,016889976E1;-1,359150663E1;1,697736833E1
9,847802167E0;8,684654523E-1;9,882787310E0;-1,416864202E1;1,729665094E1
9,857774167E0;1,600129447E0;9,905956317E0;-1,549104246E1;1,845699817E1
9,867746167E0;2,656980347E0;1,050913871E1;-1,642555031E1;1,967994523E1
9,877718167E0;3,859508486E0;1,183235543E1;-1,726401297E1;2,128254178E1
9,887690167E0;5,797133081E0;1,364507765E1;-1,800666666E1;2,332455659E1
9,897662167E0;9,045377151E0;1,542633483E1;-1,812943948E1;2,546501973E1
9,907634167E0;1,234607542E1;1,692277414E1;-1,782012060E1;2,750204649E1
9,917606167E0;1,504310481E1;1,806219416E1;-1,762365299E1;2,937909129E1
9,927578167E0;1,733718386E1;1,870101300E1;-1,745630568E1;3,090353441E1
9,937550167E0;1,907822623E1;1,876044410E1;-1,760892034E1;3,203134488E1
9,947522167E0;2,016861150E1;1,805636098E1;-1,815022516E1;3,259195814E1
9,957494167E0;1,994835624E1;1,647225203E1;-1,861370120E1;3,187070561E1
9,967466167E0;1,928799393E1;1,416310470E1;-1,977342626E1;3,104204617E1
9,977438167E0;1,892385974E1;1,134906902E1;-2,036758289E1;3,002919027E1
9,987410167E0;1,797193888E1;7,861980225E0;-2,068529720E1;2,850759268E1
9,997382167E0;1,658902794E1;3,571295133E0;-2,136528628E1;2,728416125E1
1,000735417E1;1,498697037E1;-8,802451068E-1;-2,251643932E1;2,706241217E1
1,001732617E1;1,346858061E1;-4,241346871E0;-2,252776187E1;2,658743579E1
1,002729817E1;1,232420450E1;-5,539749758E0;-2,174995589E1;2,560537883E1
1,003727017E1;1,142240948E1;-5,341079496E0;-2,092451849E1;2,443018712E1
1,004724217E1;1,100241684E1;-4,861278322E0;-1,957506999E1;2,297539050E1
1,005721417E1;1,058699907E1;-5,169072538E0;-1,761510202E1;2,119187767E1
1,006718617E1;1,069338097E1;-6,550525768E0;-1,564089841E1;2,004733118E1
1,007715817E1;1,176134450E1;-8,515820557E0;-1,447075946E1;2,050003180E1
1,008713017E1;1,443596385E1;-8,963477540E0;-1,271410970E1;2,122238364E1
1,009710217E1;1,903056090E1;-8,488063239E0;-1,146738626E1;2,378466761E1
1,010707417E1;2,302686617E1;-8,386467283E0;-8,787365837E0;2,603434649E1
1,011704617E1;2,442031847E1;-9,020257512E0;-4,337984388E0;2,639195158E1
1,012701817E1;2,307132372E1;-1,122163363E1;-1,513294494E-1;2,565607024E1
1,013699017E1;2,123357190E1;-1,448549796E1;1,160988057E0;2,573017917E1
1,014696217E1;1,913974947E1;-1,630227347E1;1,704680879E0;2,519920766E1
1,015693417E1;1,713340605E1;-1,637328673E1;1,262790420E0;2,373252538E1
1,016690617E1;1,504527413E1;-1,593214939E1;2,457292378E-1;2,191469919E1
1,017687817E1;1,360534816E1;-1,503191441E1;-8,490823710E-1;2,029248359E1
1,018685017E1;1,222744360E1;-1,355749805E1;-1,698127320E0;1,833575106E1
1,019682217E1;1,053490739E1;-1,186272470E1;-1,249924791E0;1,591448469E1
1,020679417E1;9,931741369E0;-1,034714511E1;-7,197337747E-1;1,436039398E1
1,021676617E1;1,055345008E1;-8,880573378E0;-9,156459045E-1;1,382310745E1
1,022673817E1;1,084153538E1;-7,321965886E0;-8,919202423E-1;1,311280273E1
1,023671117E1;1,103375558E1;-5,911446147E0;-1,124625977E0;1,256796488E1
1,024668317E1;1,146867616E1;-5,325315987E0;-1,849121139E0;1,277923206E1
1,025665517E1;1,120607185E1;-5,590829864E0;-2,254741904E0;1,272467233E1
1,026662717E1;1,107415750E1;-6,372266967E0;-3,416982434E0;1,322567653E1
1,027659917E1;1,115712715E1;-7,572365295E0;-4,273450423E0;1,414512569E1
1,028657117E1;1,061795656E1;-8,574551160E0;-5,261836860E0;1,462705905E1
1,029654317E1;1,021596166E1;-8,894585060E0;-6,485760253E0;1,501814243E1
1,030651517E1;9,021556764E0;-8,438136204E0;-6,844686908E0;1,412233578E1
1,031648717E1;6,760176516E0;-7,532407177E0;-7,637025560E0;1,267916810E1
1,032645917E1;5,361970428E0;-6,077781306E0;-7,959396592E0;1,135967194E1
1,033643117E1;3,371455721E0;-3,871930895E0;-7,149600493E0;8,802008279E0
1,034640317E1;2,782961825E-1;-1,173270133E0;-6,627154698E0;6,735962512E0
1,035637517E1;-2,572406220E0;6,056902653E-1;-7,397666863E0;7,855546415E0
1,036634717E1;-4,072479867E0;1,456194679E0;-7,593338673E0;8,738671948E0
1,037631917E1;-4,994661205E0;2,104773687E0;-6,106894593E0;8,165223474E0
1,038629117E1;-6,041110493E0;2,215644497E0;-4,589811687E0;7,903826153E0
1,039626317E1;-6,742515001E0;2,282217970E0;-3,397363856E0;7,887465282E0
1,040623517E1;-6,301207509E0;1,951357366E0;-1,246804132E0;6,713235597E0
1,041620717E1;-4,919627979E0;1,665297543E0;3,005503929E-1;5,202526876E0
1,042617917E1;-4,183317641E0;1,492718142E0;1,223523736E0;4,607099333E0
1,043615117E1;-3,034610783E0;2,662028541E0;2,098285031E0;4,549511911E0
1,044612317E1;-2,372551605E0;2,492792578E0;3,381152451E-1;3,457938385E0
1,045609517E1;-1,585224018E0;3,208325713E0;-2,332130973E0;4,271431135E0
1,046606717E1;-2,330218202E0;5,899126648E0;-5,551875129E0;8,429289978E0
1,047603917E1;-2,635610236E0;7,516760028E0;-8,436749244E0;1,160288156E1
1,048600750E1;-2,553396630E0;8,881870290E0;-1,062168241E1;1,407933207E1
1,049597950E1;-3,172241961E0;1,048374192E1;-1,188986747E1;1,616604194E1
1,050595150E1;-3,011469550E0;1,100499312E1;-1,087986973E1;1,576548089E1
1,051592350E1;-2,330351957E0;1,105675619E1;-8,507689419E0;1,414436909E1
1,052589550E1;-2,564403721E0;1,118493417E1;-7,477511178E0;1,369642626E1
1,053586750E1;-3,072259836E0;1,031085612E1;-7,115001934E0;1,289867384E1
1,054583950E1;-3,486772169E0;8,838141303E0;-6,900910810E0;1,174278041E1
1,055581150E1;-3,728711242E0;7,493813215E0;-6,735124120E0;1,074348272E1
1,056578350E1;-3,548468773E0;6,401026497E0;-6,376126129E0;9,706686111E0
1,057575550E1;-3,315009625E0;5,431127787E0;-5,781497626E0;8,597217727E0
1,058572750E1;-3,092606100E0;4,228245015E0;-4,931948063E0;7,194885689E0
1,059570050E1;-2,335810333E0;3,520778114E0;-3,794419035E0;5,678864698E0
1,060567250E1;-1,381322545E0;3,459215704E0;-2,764144315E0;4,638396172E0
1,061564450E1;-9,012199464E-1;2,885664074E0;-1,896573048E0;3,568787451E0
1,062561650E1;-6,235931240E-1;1,913114237E0;-8,068882781E-1;2,167935230E0
1,063558850E1;-4,088857407E-1;1,194038274E0;2,638193536E-1;1,289385745E0
1,064556050E1;1,510317165E-1;6,913127983E-1;1,006123381E0;1,230043992E0
1,065553250E1;5,994838844E-1;3,766922504E-1;1,476016155E0;1,637040522E0
1,066550450E1;9,174993988E-1;-2,759757149E-1;1,986930072E0;2,205869183E0
1,067547650E1;1,155894620E0;-9,602285850E-1;2,386866758E0;2,820507797E0
1,068544850E1;1,260716266E0;-1,560793766E0;2,861465372E0;3,494777069E0
1,069542050E1;1,024345205E0;-2,042147668E0;3,089680445E0;3,842626114E0
1,070539250E1;4,233388883E-1;-2,150722861E0;3,076908372E0;3,777855181E0
1,071536450E1;2,214609174E-2;-2,203758861E0;3,104459867E0;3,807192488E0
1,072533650E1;-1,556833776E-1;-2,052707739E0;2,809626882E0;3,483080475E0
1,073530850E1;-3,206083160E-1;-1,624730730E0;2,413299682E0;2,926867778E0
1,074528050E1;-3,918677850E-1;-1,294979927E0;2,037639465E0;2,445916589E0
1,075525250E1;-3,983886364E-1;-1,079802391E0;1,915135034E0;2,234374389E0
1,076522450E1;-3,037305473E-1;-9,823953795E-1;1,921289814E0;2,179152926E0
1,077519650E1;-1,354194314E-1;-9,401603562E-1;1,772246625E0;2,010745638E0
1,078516850E1;-8,190236991E-2;-9,035445070E-1;1,692872427E0;1,920655547E0
1,079514050E1;-2,384744146E-1;-9,324858856E-1;1,735716730E0;1,984719764E0
1,080511250E1;-4,697450595E-1;-1,047889457E0;1,642944807E0;2,004495042E0
1,081508450E1;-5,212900197E-1;-1,088745123E0;1,374840029E0;1,829561240E0
1,082505650E1;-2,311997840E-1;-1,174647152E0;1,173118690E0;1,676143411E0
1,083502850E1;9,679056868E-2;-1,225878702E0;1,198218448E0;1,716937522E0
1,084500050E1;2,145195050E-1;-1,306228800E0;1,285368859E0;1,845108506E0
1,085497250E1;5,120317942E-1;-1,275302877E0;1,249747036E0;1,857536444E0
1,086494450E1;6,608129174E-1;-9,880391121E-1;1,190275590E0;1,682156646E0
1,087491650E1;5,295436569E-1;-8,716198790E-1;1,172433397E0;1,553942653E0
1,088488850E1;4,694578151E-1;-1,022311982E0;1,042590126E0;1,533788316E0
1,089486050E1;5,622765163E-1;-9,649250686E-1;9,215726423E-1;1,447940401E0
1,090483250E1;5,779959516E-1;-9,435792232E-1;8,694008607E-1;1,407223837E0
1,091480450E1;5,837052461E-1;-1,126170226E0;8,814186430E-1;1,544626174E0
1,092477750E1;6,592381161E-1;-1,099993411E0;8,646932673E-1;1,546698046E0
1,093474950E1;7,021202070E-1;-8,781652522E-1;8,874909765E-1;1,432406098E0
1,094472150E1;6,322790898E-1;-7,436442089E-1;1,010220525E0;1,404752315E0
1,095469350E1;3,480587277E-1;-6,176390505E-1;1,127159575E0;1,331582360E0
1,096466550E1;1,747265895E-1;-6,212988228E-1;1,281878071E0;1,435183959E0
1,097463750E1;3,253492384E-1;-6,825273567E-1;1,295323743E0;1,499853099E0
1,098460950E1;6,906115709E-1;-5,177446336E-1;1,253881018E0;1,522242245E0
1,099458150E1;1,119683618E0;-4,783425862E-1;1,287554548E0;1,772089091E0
1,100455350E1;1,302905535E0;-5,325866210E-1;1,326637337E0;1,934212493E0
1,101452550E1;1,186267616E0;-5,258553064E-1;1,441880111E0;1,939786822E0
1,102449750E1;9,496331379E-1;-4,940897226E-1;1,499949979E0;1,842763601E0
1,103446950E1;8,063879026E-1;-3,731160933E-1;1,531787483E0;1,770833127E0
1,104444150E1;6,165774885E-1;-1,401589286E-1;1,459902399E0;1,590951708E0
1,105441350E1;5,997274210E-1;1,751007199E-2;1,392823141E0;1,516553950E0
1,106438550E1;8,086727022E-1;1,753638446E-2;1,343346925E0;1,568068884E0
1,107435750E1;1,213519004E0;-7,620208383E-2;1,391914483E0;1,848204820E0
1,108432950E1;1,541480705E0;-1,751486671E-1;1,257717376E0;1,997171204E0
1,109430150E1;1,535749118E0;-1,950964433E-1;1,021112133E0;1,854523649E0
1,110427350E1;1,166112849E0;-2,448843151E-1;8,253836060E-1;1,449498396E0
1,111424550E1;6,367189537E-1;-2,930320430E-1;6,290633404E-1;9,418065037E-1
1,112421750E1;1,768744728E-1;-1,385714096E-1;4,429528981E-1;4,966828814E-1
1,113418950E1;-1,207172289E-1;8,196743846E-2;2,723796773E-1;3,090016164E-1
1,114416150E1;-2,712105265E-1;1,914220530E-1;8,323453009E-2;3,422360867E-1
1,115413350E1;-1,865732494E-1;3,143007052E-1;-4,552583635E-2;3,683301677E-1
1,116410550E1;5,326228738E-2;4,134993035E-1;-1,085167211E-1;4,308067130E-1
1,117407750E1;2,831297833E-1;4,274811655E-1;-2,436365193E-1;5,676806978E-1
1,118404950E1;4,879024914E-1;4,226917112E-1;-3,701316744E-1;7,441200039E-1
1,119402150E1;6,925781357E-1;4,753230840E-1;-4,322355366E-1;9,446819927E-1
1,120399350E1;6,640767601E-1;4,843184406E-1;-3,440852523E-1;8,910426230E-1
1,121396650E1;4,107847336E-1;3,395331949E-1;-1,300438303E-1;5,485784225E-1
1,122393850E1;8,002206981E-2;2,515255827E-1;-7,807904005E-2;2,752544039E-1
1,123391050E1;-3,957600206E-2;2,222351253E-1;-9,189074814E-2;2,437183219E-1
1,124388250E1;1,057234148E-2;1,440297854E-1;-1,271623224E-1;1,924229969E-1
1,125385450E1;2,120118535E-1;-5,421538353E-3;-1,893492150E-1;2,843088889E-1
1,126382650E1;4,656593907E-1;-1,253327286E-1;-1,825471491E-1;5,156262432E-1
1,127379850E1;6,068316418E-1;-1,552593631E-1;-1,091137218E-1;6,358112264E-1
1,128377050E1;6,546039784E-1;-1,031331897E-1;7,190905809E-2;6,665686281E-1
1,129374250E1;4,751669633E-1;-1,858192509E-1;1,359132653E-1;5,280008075E-1
1,130371450E1;3,017163277E-1;-3,097819769E-1;1,753790474E-1;4,666427176E-1
1,131368650E1;1,318050116E-1;-3,229206705E-1;2,197138059E-1;4,122189673E-1
1,132365850E1;-1,013471577E-1;-3,123442268E-1;1,255058062E-1;3,515421309E-1
1,133363050E1;-1,258882141E-1;-3,482391143E-1;8,384030163E-2;3,796676433E-1
1,134360250E1;3,400009722E-2;-4,072176397E-1;2,183408797E-1;4,633087010E-1
1,135357450E1;1,454632303E-1;-4,293259621E-1;2,526043940E-1;5,189309327E-1
1,136354650E1;1,348502415E-1;-3,984310287E-1;1,631835097E-1;4,511770497E-1
1,137351850E1;5,301845849E-2;-3,929849321E-1;1,411617261E-1;4,209213070E-1
1,138349050E1;-1,386959553E-2;-3,553773952E-1;2,662938952E-2;3,566434957E-1
1,139346250E1;-3,600101441E-2;-2,385172820E-1;-7,857371449E-2;2,536935069E-1
1,140343450E1;-2,881392756E-2;-7,088930368E-2;-2,156879979E-1;2,288598878E-1
1,141340650E1;7,625149280E-2;4,497736752E-2;-2,685129136E-1;2,827303282E-1
1,142337850E1;2,245415595E-1;8,621134758E-2;-2,739262658E-1;3,645365654E-1
1,143335050E1;3,981556249E-1;1,705568486E-1;-3,471740440E-1;5,551102206E-1
1,144332250E1;4,989885199E-1;2,822930467E-1;-4,360023129E-1;7,202617053E-1
1,145329450E1;4,682471125E-1;2,918737096E-1;-4,396062443E-1;7,054780441E-1
1,146326650E1;3,221959447E-1;2,671955359E-1;-4,146649459E-1;5,891949580E-1
1,147323850E1;2,365134412E-1;2,744355583E-1;-4,116340417E-1;5,483576094E-1
1,148321150E1;2,066301127E-1;3,440758967E-1;-5,429306379E-1;6,751724993E-1
1,149318712E1;2,346782926E-1;4,310479671E-1;-6,484644020E-1;8,132541617E-1
1,150315912E1;3,262009585E-1;4,781490433E-1;-7,403732765E-1;9,397798473E-1
1,151313113E1;4,256191928E-1;5,045796275E-1;-8,382556665E-1;1,066969943E0
1,152310312E1;5,296621361E-1;5,675670040E-1;-8,757374883E-1;1,170295019E0
1,153307512E1;7,060515824E-1;5,473233587E-1;-8,428162023E-1;1,228173785E0
1,154304712E1;7,780743688E-1;5,114962989E-1;-7,358527941E-1;1,186805596E0
1,155301913E1;7,927643287E-1;4,762943065E-1;-6,602278304E-1;1,136324045E0
1,156299112E1;7,336650583E-1;4,685923541E-1;-6,683472741E-1;1,097511408E0
1,157296312E1;6,656104848E-1;4,822742540E-1;-6,898480707E-1;1,073087198E0
1,158293512E1;6,803197405E-1;4,847868025E-1;-7,269311124E-1;1,107376194E0
1,159290713E1;6,590870386E-1;4,705318755E-1;-7,172849607E-1;1,081801130E0
1,160287912E1;6,016069353E-1;4,260901129E-1;-5,663273942E-1;9,296291769E-1
1,161285112E1;5,294703475E-1;3,380561882E-1;-4,895932138E-1;7,964435637E-1
1,162282312E1;4,331722605E-1;2,655787808E-1;-4,277518916E-1;6,641851977E-1
1,163279513E1;4,236889538E-1;1,706907499E-1;-3,800929910E-1;5,942376153E-1
1,164276712E1;4,392750360E-1;8,416599154E-2;-3,527908793E-1;5,696559277E-1
1,165273912E1;4,413897181E-1;-4,436457932E-2;-3,389622143E-1;5,582906787E-1
1,166271112E1;4,905092532E-1;-1,083319491E-1;-2,440314987E-1;5,584680036E-1
1,167268313E1;4,663028037E-1;-3,467398882E-2;-1,745849955E-1;4,991197360E-1
1,168265512E1;3,336432946E-1;9,053828716E-3;-1,636243898E-1;3,717159679E-1
1,169262712E1;2,603741010E-1;-1,510043442E-2;-1,285112751E-1;2,907539225E-1
1,170259912E1;1,877872045E-1;-6,542858899E-2;-7,296184927E-2;2,118215425E-1
1,171257113E1;1,579748100E-1;-1,577374130E-1;-7,958996058E-2;2,370056833E-1
1,172254312E1;2,161915163E-1;-1,427597702E-1;-1,957276502E-1;3,246974542E-1
1,173251612E1;2,392505959E-1;-3,185153782E-2;-3,777731082E-1;4,482944227E-1
1,174248812E1;3,204548997E-1;4,956918597E-2;-5,702543843E-1;6,560019129E-1
1,175246013E1;5,056610700E-1;1,719993567E-1;-8,605481762E-1;1,012827754E0
1,176243212E1;6,764852095E-1;2,440592730E-1;-1,233654329E0;1,427970648E0
1,177240412E1;6,744702590E-1;3,044990176E-1;-1,792594644E0;1,939336314E0
1,178237612E1;5,613309485E-1;4,534597600E-1;-2,606745456E0;2,704780963E0
1,179234813E1;4,070875391E-1;6,744014812E-1;-3,476851491E0;3,564973199E0
1,180232012E1;1,362021178E-2;1,106673270E0;-4,384373274E0;4,521906704E0
1,181229212E1;-4,020049200E-1;1,091758193E0;-5,450211344E0;5,573001669E0
1,182226412E1;-2,427977362E-1;4,371208853E-1;-6,526518270E0;6,545644822E0
1,183223613E1;9,399903484E-2;3,952992600E-1;-8,003900335E0;8,014207253E0
1,184220812E1;2,575347662E-1;8,458669871E-1;-9,775287420E0;9,815195324E0
1,185218012E1;1,224134989E0;1,043069597E0;-1,136683286E1;1,148004312E1
1,186215212E1;1,919122543E0;9,109084904E-1;-1,288443442E1;1,305838565E1
1,187212413E1;2,392824194E0;7,133018374E-1;-1,393113513E1;1,415312450E1
1,188209612E1;3,363626884E0;-7,256277680E-2;-1,428665520E1;1,467745782E1
1,189206812E1;4,118024415E0;-1,211073552E0;-1,426635952E1;1,489811525E1
1,190204012E1;4,621534879E0;-2,502787224E0;-1,380111528E1;1,476798265E1
1,191201213E1;4,658673469E0;-3,874958584E0;-1,316644212E1;1,449392081E1
1,192198412E1;4,255152147E0;-5,183751388E0;-1,239825130E1;1,409589421E1
1,193195612E1;4,040603479E0;-6,829627404E0;-1,168126104E1;1,412169063E1
1,194192812E1;3,729597095E0;-8,076422181E0;-1,175548091E1;1,474211048E1
1,195190013E1;3,430448280E0;-9,203643737E0;-1,191618111E1;1,544248703E1
1,196187212E1;2,902752270E0;-1,036004173E1;-1,181992659E1;1,598333820E1
1,197184512E1;2,921374482E0;-1,156350630E1;-1,142031150E1;1,651280175E1
1,198181712E1;4,176922541E0;-1,311562631E1;-1,031121631E1;1,719847427E1
1,199178913E1;5,155728022E0;-1,477191914E1;-8,902975815E0;1,800150285E1
1,200176112E1;6,024420201E0;-1,628267360E1;-7,587649332E0;1,894707156E1
1,201173312E1;6,446048888E0;-1,792978279E1;-4,809285173E0;1,965090026E1
1,202170512E1;7,618706233E0;-1,990486231E1;-5,637546194E-1;2,132055458E1
1,203167713E1;9,791633896E0;-2,094171632E1;3,635060774E0;2,340182137E1
1,204164912E1;9,809011821E0;-2,224583018E1;7,531838243E0;2,545235275E1
1,205162112E1;9,975310142E0;-2,253741679E1;1,660290689E1;2,971697302E1
1,206159312E1;8,160375334E0;-2,011301617E1;2,445406860E1;3,269750168E1
1,207156513E1;6,235844409E0;-1,649319909E1;2,580305867E1;3,125234725E1
1,208153712E1;5,901056814E0;-1,614105404E1;3,023193393E1;3,477536378E1
1,209150912E1;4,115990461E0;-1,350948072E1;3,541845398E1;3,813022854E1
1,210148112E1;2,039221721E0;-9,240964175E0;3,575304335E1;3,698423925E1
1,211145313E1;2,893529749E-1;-4,470741327E0;3,353361103E1;3,383155807E1
1,212142512E1;6,368962705E-2;-4,059650199E-1;3,013473917E1;3,013754086E1
1,213139712E1;4,612383109E-1;2,265934352E0;2,488526333E1;2,499246947E1
1,214136912E1;5,703017467E-1;3,966072237E0;1,927734732E1;1,968936496E1
1,215134113E1;9,872783893E-1;4,583834956E0;1,371627919E1;1,449560542E1
1,216131312E1;8,822916323E-1;5,001157461E0;9,442190255E0;1,072123926E1
1,217128512E1;1,750152044E-1;5,420297574E0;5,492179150E0;7,718438179E0
1,218125712E1;4,257351869E-1;5,719981994E0;3,086322974E0;6,513434882E0
1,219122913E1;4,798254400E-1;6,023617963E0;1,766156750E0;6,295515505E0
1,220120212E1;5,817482561E-2;5,830430635E0;9,194442558E-1;5,902769133E0
1,221117412E1;-3,795488345E-1;5,529645184E0;2,896266246E-1;5,550217722E0
1,222114612E1;-1,812246551E-1;5,094127021E0;1,263144761E-1;5,098914377E0
1,223111813E1;-2,037362891E-1;4,888748541E0;-6,196294427E-3;4,892995930E0
1,224109012E1;-4,299937141E-1;4,719987957E0;-4,008242941E-1;4,756452567E0
1,225106212E1;-2,847121860E-1;4,603117611E0;-6,648769516E-1;4,659593774E0
1,226103412E1;-4,144041601E-1;4,523067767E0;-1,145567195E0;4,684249890E0
1,227100613E1;-2,132299747E-1;4,444592578E0;-1,024117017E0;4,566036123E0
1,228097812E1;2,545518091E-1;4,389251314E0;-1,104147273E0;4,533151764E0
1,229095012E1;3,000093792E-1;4,250568514E0;-1,572616251E0;4,542076639E0
1,230092212E1;7,368251860E-2;3,969656872E0;-1,353937987E0;4,194848373E0
1,231089413E1;-3,800456285E-2;3,456193278E0;-1,189468675E0;3,655345681E0
1,232086612E1;-7,756770104E-2;2,871420549E0;-1,208314251E0;3,116263155E0
1,233083812E1;-2,001086766E-1;2,452648519E0;-9,340377367E-1;2,632100822E0
1,234081012E1;-2,971087035E-1;1,953795362E0;-6,473306268E-1;2,079573716E0
1,235078213E1;-2,885926907E-1;1,386958091E0;-2,799494827E-1;1,444060317E0
1,236075412E1;2,046161855E-2;1,084344216E0;1,326470107E-1;1,092619003E0
1,237072612E1;1,900612597E-1;9,221082473E-1;1,846749508E-1;9,594330303E-1
1,238069812E1;3,736176382E-1;8,674598774E-1;4,977781463E-1;1,067642197E0
1,239067013E1;4,772329308E-1;9,195787418E-1;4,894751000E-1;1,145845629E0
1,240064212E1;4,488328582E-1;9,471629816E-1;8,779243469E-2;1,051796634E0
1,241061512E1;4,518218087E-1;9,724352324E-1;-4,081181109E-2;1,073051179E0
1,242058713E1;4,015734686E-1;9,679118264E-1;-2,139630693E-1;1,069530154E0
1,243055912E1;3,242126128E-1;8,639255279E-1;-3,620245099E-1;9,912330109E-1
1,244053112E1;3,497250380E-1;7,752337915E-1;-3,928375822E-1;9,368118272E-1
1,245050312E1;8,670207515E-2;5,764448315E-1;-6,079736030E-1;8,422813043E-1
1,246047513E1;-1,214611410E-1;2,816527766E-1;-4,806680238E-1;5,701954441E-1
1,247044712E1;2,670189500E-2;1,744382304E-1;-5,233889508E-1;5,523383757E-1
1,248041912E1;5,826077968E-2;8,148504317E-2;-7,650426793E-1;7,715727003E-1
1,249038717E1;-3,040304089E-2;7,908651531E-3;-8,306320667E-1;8,312259151E-1
1,250035917E1;-2,985442132E-3;-4,681690156E-2;-8,446992981E-1;8,460009689E-1
1,251033117E1;-1,588878527E-2;-1,150696957E-1;-1,005638062E0;1,012324750E0
1,252030317E1;-1,277699943E-1;-1,776328567E-1;-8,334743983E-1;8,617181533E-1
1,253027517E1;2,649738863E-2;-1,396145529E-1;-4,395574200E-1;4,619578557E-1
1,254024717E1;1,969328893E-1;-1,732000825E-1;-3,700907439E-1;4,535945218E-1
1,255021917E1;2,769425520E-1;-1,841668278E-1;-2,508642626E-1;4,165902973E-1
1,256019117E1;2,184686413E-1;-2,178333414E-1;-3,113513696E-1;4,383144844E-1
1,257016317E1;4,015215746E-1;-2,148132545E-1;-3,752684534E-2;4,569163745E-1
1,258013517E1;6,556516533E-1;-3,050726295E-2;5,044077194E-1;8,277903907E-1
1,259010717E1;6,338865624E-1;-1,788253963E-1;1,249438888E-1;6,703742774E-1
1,260007917E1;6,381101525E-1;-4,637128526E-1;2,202815706E-1;8,189860479E-1
1,261005217E1;4,037916099E-1;-5,863956231E-1;3,135832518E-1;7,779729730E-1
1,262002417E1;1,569016998E-1;-6,930178463E-1;-6,821537197E-2;7,138243591E-1
1,262999617E1;4,845707479E-1;-4,446573615E-1;8,101755828E-1;1,043510160E0
1,263996817E1;5,774093297E-1;-3,297396934E-1;1,317398152E0;1,475692275E0
1,264994017E1;5,037044455E-1;-4,998597550E-1;1,073904305E0;1,287186233E0
1,265991217E1;6,112752333E-1;-5,476724374E-1;1,319142376E0;1,553621292E0
1,266988417E1;5,696170378E-1;-5,383057827E-1;1,642637243E0;1,820025769E0
1,267985617E1;5,685934827E-1;-4,409560740E-1;1,652344791E0;1,802216445E0
1,268982817E1;5,314965539E-1;-3,013105309E-1;1,466085244E0;1,588295491E0
1,269980017E1;4,966586968E-1;-1,307665461E-1;1,534045678E0;1,617734803E0
1,270977217E1;3,193258023E-1;-1,577303964E-1;1,315394311E0;1,362758247E0
1,271974417E1;3,340160546E-1;-1,024630988E-1;8,320032388E-1;9,023828460E-1
1,272971617E1;4,930973040E-1;7,652952790E-2;6,158199817E-1;7,926133797E-1
1,273968817E1;3,692681868E-1;6,715585649E-2;3,421176642E-1;5,078517491E-1
1,274966017E1;2,567149866E-1;-1,881148678E-1;-1,682477832E-2;3,187049748E-1
1,275963217E1;2,045566535E-1;-5,075365645E-1;-4,731373948E-1;7,233918600E-1
1,276960417E1;2,389269891E-1;-6,526691347E-1;-7,673751336E-1;1,035339414E0
1,277957617E1;5,770347790E-1;-2,129713815E-1;-6,808737642E-1;9,175592778E-1
1,278954817E1;1,016807121E0;-9,131245852E-2;-2,227859330E-1;1,044925001E0
1,279952017E1;8,797885855E-1;-7,936156833E-1;-1,795668232E-1;1,198373085E0
1,280949317E1;9,188976873E-1;-9,328209311E-1;-1,877143335E-1;1,322786650E0
1,281946517E1;1,409735481E0;-6,394339621E-1;1,432456738E-1;1,554589734E0
1,282943717E1;1,635154123E0;-4,783846861E-1;4,399497682E-1;1,759584244E0
1,283940917E1;1,300982971E0;-7,373947048E-1;4,279308164E-1;1,555452482E0
1,284938117E1;9,278633693E-1;-1,075542694E0;2,790770781E-1;1,447620991E0
1,285935317E1;1,063205800E0;-8,524819422E-1;4,671890223E-1;1,440624038E0
1,286932517E1;1,227137169E0;-6,652652067E-1;6,548174018E-1;1,541826597E0
1,287929717E1;1,131529053E0;-5,573285294E-1;4,128765750E-1;1,327192584E0
1,288926917E1;1,026586954E0;-3,384356725E-1;2,594082141E-1;1,111625882E0
1,289924117E1;8,130363330E-1;-2,031591690E-1;1,223646820E-1;8,469208004E-1
1,290921317E1;4,668804355E-1;-1,734488815E-1;-8,106462836E-2;5,046120584E-1
1,291918517E1;3,131701095E-1;-9,025001943E-2;-2,243611729E-1;3,956747647E-1
1,292915717E1;1,932158326E-1;-1,429100436E-1;-2,755500376E-1;3,656274904E-1
1,293912917E1;4,133411363E-2;-1,846270037E-1;-3,433543503E-1;3,920304189E-1
1,294910117E1;9,005702477E-2;-1,184833002E-1;-4,826549077E-1;5,050785286E-1
1,295907317E1;3,925762117E-2;-1,056012994E-1;-5,520537561E-1;5,634324670E-1
1,296904517E1;1,485426664E-2;-1,127729094E-1;-5,800502247E-1;5,910978273E-1
1,297901717E1;1,438236710E-1;3,553703785E-2;-6,526054001E-1;6,692099354E-1
1,298898917E1;2,688305636E-1;1,476597369E-1;-7,062454176E-1;7,699713369E-1
1,299896217E1;2,292118768E-1;2,040561318E-1;-7,983373100E-1;8,552891031E-1
1,300893417E1;1,984243495E-1;1,762859505E-1;-7,795794421E-1;8,235247813E-1
1,301890617E1;2,634843081E-1;1,991269290E-1;-7,875287318E-1;8,539771765E-1
1,302887817E1;3,941327405E-1;2,886665118E-1;-8,792703760E-1;1,005875423E0
1,303885017E1;3,870735432E-1;1,887644935E-1;-8,444233096E-1;9,478969815E-1
1,304882217E1;2,909400554E-1;1,189089775E-2;-6,973523873E-1;7,557035539E-1
1,305879417E1;4,122520924E-1;3,592412353E-2;-7,107121056E-1;8,224074583E-1
1,306876617E1;4,953747579E-1;1,496121222E-1;-6,679274440E-1;8,449301795E-1
1,307873817E1;3,508658297E-1;2,273134321E-1;-5,024266827E-1;6,536136461E-1
1,308871017E1;2,652068613E-1;2,839098018E-1;-5,217476374E-1;6,505075342E-1
1,309868217E1;1,280525610E-1;3,872821426E-1;-6,613212597E-1;7,770011100E-1
1,310865417E1;-5,246037830E-2;4,819842321E-1;-7,515110528E-1;8,943320154E-1
1,311862617E1;-1,217176875E-1;5,004146558E-1;-7,371953148E-1;8,992702349E-1
1,312859817E1;-1,962942454E-1;5,786585873E-1;-8,736669892E-1;1,066147832E0
1,313857017E1;-2,024763604E-1;6,035501844E-1;-8,562469643E-1;1,066971586E0
1,314854217E1;-1,408755049E-1;6,578521067E-1;-7,715751886E-1;1,023691152E0
1,315851417E1;-1,462150361E-1;6,528036207E-1;-7,451948905E-1;1,001422403E0
1,316848617E1;-1,454454694E-1;5,678371453E-1;-8,616182166E-1;1,042103334E0
1,317845817E1;1,574608397E-1;9,185940707E-1;-9,495585859E-1;1,330515122E0
1,318843117E1;3,012158060E-1;1,205010574E0;-8,767209899E-1;1,520335864E0
1,319840317E1;2,973221451E-1;1,112553815E0;-8,310115510E-1;1,420125575E0
1,320837517E1;1,757828707E-1;1,202084627E0;-1,001605822E0;1,574522560E0
1,321834717E1;2,517604946E-1;1,469748525E0;-9,297680998E-1;1,757274251E0
1,322831917E1;4,465039853E-1;1,237548575E0;-4,650395858E-1;1,395404637E0
1,323829117E1;3,630882646E-1;1,066495298E0;-1,039968234E-1;1,131397652E0
1,324826317E1;5,878900252E-1;9,249008775E-1;2,698858398E-1;1,128669430E0
1,325823517E1;9,255383702E-1;8,902064234E-1;4,361736363E-1;1,356221292E0
1,326820717E1;9,786113539E-1;9,447691315E-1;3,349355292E-1;1,400874978E0
1,327817917E1;9,449221824E-1;9,231087059E-1;3,673554164E-1;1,371115464E0
1,328815117E1;9,163732251E-1;8,393566972E-1;3,765472394E-1;1,298478870E0
1,329812317E1;9,499656252E-1;7,072756970E-1;3,103438944E-1;1,224331219E0
1,330809517E1;9,941325686E-1;4,645606989E-1;1,763976324E-1;1,111410065E0
1,331806717E1;6,751695860E-1;4,406964576E-1;6,514675319E-2;8,088951954E-1
1,332803917E1;6,946910271E-1;5,233480203E-1;3,270528978E-1;9,292213792E-1
1,333801117E1;4,462084085E-1;4,252679944E-1;4,337160516E-1;7,537004871E-1
1,334798317E1;1,465642610E-1;1,853754473E-1;5,779756325E-1;6,244205081E-1
1,335795517E1;3,289531698E-1;2,828380072E-1;8,908648199E-1;9,908822602E-1
1,336792817E1;2,648307026E-1;8,089564383E-2;1,061568434E0;1,097090218E0
1,337790017E1;9,325512283E-2;-2,107786757E-1;1,038454975E0;1,063725953E0
1,338787217E1;1,195432542E-1;-2,446188515E-1;1,135704696E0;1,167884467E0
1,339784417E1;6,108792306E-1;1,058439589E-1;1,191030466E0;1,342732270E0
1,340781617E1;8,590059000E-1;3,536857957E-1;1,093074401E0;1,434502152E0
1,341778817E1;8,799645136E-1;4,871438152E-1;8,886229974E-1;1,342124239E0
1,342776017E1;6,598044189E-1;4,358064312E-1;7,081896168E-1;1,061509138E0
1,343773217E1;5,065260925E-1;2,492059922E-1;6,300702310E-1;8,459673782E-1
1,344770417E1;4,997426645E-1;1,792335320E-1;4,322723740E-1;6,846362502E-1
1,345767617E1;4,459191176E-1;1,815449363E-1;1,840434515E-1;5,154361409E-1
1,346764817E1;2,944839066E-1;3,534232557E-2;4,917099059E-2;3,006453684E-1
1,347762017E1;1,748116482E-1;-7,110974371E-2;-7,611671448E-2;2,034931503E-1
1,348759317E1;1,957712120E-1;-1,145469546E-3;-2,109763116E-1;2,878171009E-1
1,349756517E1;1,384022058E-1;4,987207174E-2;-2,983021384E-1;3,326057124E-1
1,350753717E1;2,585960358E-2;4,722913027E-2;-3,746077180E-1;3,784577284E-1
1,351750917E1;2,335524112E-3;1,171635836E-1;-4,168901038E-1;4,330474785E-1
1,352748117E1;-2,174140960E-2;1,805485708E-1;-4,924191731E-1;5,249258208E-1
1,353745317E1;1,315550432E-2;1,457248932E-1;-5,074599659E-1;5,281329651E-1
1,354742617E1;1,262654326E-1;-6,179922223E-3;-4,095974565E-1;4,286621365E-1
1,355739817E1;2,577414653E-1;-1,509353471E-1;-2,997235966E-1;4,231387199E-1
1,356737017E1;3,109059580E-1;-1,762923825E-1;-2,252218831E-1;4,224528559E-1
1,357734217E1;4,101669022E-1;-3,248321253E-1;-3,005995095E-2;5,240767100E-1
1,358731417E1;5,248872267E-1;-4,804639560E-1;1,846568245E-1;7,351532879E-1
1,359728617E1;5,881526383E-1;-4,839611757E-1;3,808303249E-1;8,515713017E-1
1,360725817E1;6,126678208E-1;-5,406452537E-1;6,892873228E-1;1,069007092E0
1,361723017E1;6,287611125E-1;-6,461161602E-1;1,013563963E0;1,356509689E0
1,362720217E1;7,562632312E-1;-6,547747171E-1;1,220284086E0;1,577896465E0
1,363717417E1;8,720818090E-1;-6,598272961E-1;1,352263929E0;1,739113704E0
1,364714617E1;8,514039349E-1;-7,043199295E-1;1,468621767E0;1,837880605E0
1,365711817E1;7,632935578E-1;-6,962343997E-1;1,462412024E0;1,790532971E0
1,366709017E1;6,529832764E-1;-5,618484271E-1;1,310041770E0;1,567887194E0
1,367706217E1;4,376325897E-1;-2,734356844E-1;1,048481196E0;1,168589823E0
1,368703417E1;2,392067418E-1;-8,290065408E-2;8,468808943E-1;8,839115527E-1
1,369700617E1;2,535547858E-1;-1,293012339E-1;6,786301875E-1;7,358992933E-1
1,370697817E1;1,823797725E-1;-1,163098902E-1;3,843778306E-1;4,410631345E-1
1,371695117E1;2,071858540E-2;-1,355630171E-1;1,578631282E-1;2,091108764E-1
1,372692317E1;-1,474743070E-1;-2,113423473E-1;-1,478410006E-2;2,581333543E-1
1,373689517E1;-2,147871613E-1;-2,151681805E-1;-2,211381876E-1;3,759427730E-1
1,374686717E1;-2,493614551E-1;-2,144858104E-1;-4,164451307E-1;5,306711270E-1
1,375683917E1;-2,586121157E-1;-2,427799022E-1;-5,751227760E-1;6,757133377E-1
1,376681117E1;-1,369767277E-1;-1,452313882E-1;-7,111787134E-1;7,386676807E-1
1,377678317E1;2,858557552E-4;-5,628529787E-3;-8,178465450E-1;8,178659629E-1
1,378675517E1;6,565136790E-2;8,884668767E-2;-8,867536426E-1;8,936083362E-1
1,379672717E1;7,331494801E-2;1,745902580E-1;-1,001470751E0;1,019215632E0
1,380669917E1;1,024195370E-1;2,891869140E-1;-1,086286368E0;1,128776730E0
1,381667117E1;1,897535500E-1;2,152073568E-1;-1,082062340E0;1,119455012E0
1,382664317E1;2,293716520E-1;2,886086243E-1;-1,075312314E0;1,136751013E0
1,383661517E1;2,988972388E-1;4,123725450E-1;-1,068920723E0;1,184053287E0
1,384658717E1;3,264112390E-1;3,902256310E-1;-9,884899324E-1;1,111725095E0
1,385655917E1;3,019289470E-1;2,359643877E-1;-8,770402479E-1;9,570997220E-1
1,386653117E1;2,957926597E-1;1,070695353E-1;-7,539756542E-1;8,169678513E-1
1,387650317E1;2,941229142E-1;4,033818662E-2;-6,666346246E-1;7,297514513E-1
1,388647617E1;2,879885271E-1;-1,357138753E-3;-5,768272394E-1;6,447238926E-1
1,389644817E1;2,055033908E-1;5,049070716E-3;-4,540602690E-1;4,984253852E-1
1,390642017E1;1,421819191E-1;5,048719883E-2;-4,039642489E-1;4,312212538E-1
1,391639217E1;1,406461479E-1;9,125749469E-2;-3,548230791E-1;3,924394052E-1
1,392636417E1;1,546106876E-1;6,983855903E-2;-2,985974228E-1;3,434272994E-1
1,393633617E1;1,492526646E-1;6,029297948E-2;-2,678597796E-1;3,125067404E-1
1,394630817E1;8,287499942E-2;1,199152833E-1;-2,726825631E-1;3,091985137E-1
1,395628017E1;1,071794629E-2;2,299587125E-1;-2,561589164E-1;3,444027791E-1
1,396625217E1;2,298350438E-2;1,497951400E-1;-1,758140802E-1;2,321150927E-1
1,397622417E1;1,836084187E-2;8,584823549E-2;-1,881131136E-1;2,075899409E-1
1,398619617E1;1,234500714E-2;1,836107576E-1;-3,003726375E-1;3,522627299E-1
1,399616817E1;2,250607923E-2;2,032264119E-1;-3,051503974E-1;3,673203822E-1
1,400614017E1;-4,163217545E-4;2,245629019E-1;-2,394814879E-1;3,282987256E-1
1,401611217E1;-3,559492528E-2;3,339678150E-1;-2,956422400E-1;4,474436661E-1
1,402608417E1;-1,249750983E-1;4,005828041E-1;-3,241263664E-1;5,302294404E-1
1,403605617E1;-1,146242841E-1;4,628217369E-1;-3,253338164E-1;5,772216028E-1
1,404602917E1;-2,814864233E-2;4,537737554E-1;-3,402915788E-1;5,678920018E-1
1,405600117E1;-9,068212867E-2;4,354731399E-1;-3,538653052E-1;5,684019337E-1
1,406597317E1;-2,059075065E-1;5,429145581E-1;-4,202124918E-1;7,167514610E-1
1,407594517E1;-1,913551755E-1;5,070155776E-1;-4,261333823E-1;6,893992012E-1
1,408591717E1;-1,281984490E-1;3,104818887E-1;-3,390133774E-1;4,772461792E-1
1,409588917E1;5,698089726E-2;1,162935179E-1;-2,898534966E-1;3,174681944E-1
1,410586117E1;7,647266373E-2;-2,524944663E-2;-2,212276500E-1;2,354299811E-1
1,411583317E1;-1,381927293E-1;4,556735158E-2;7,721891463E-2;1,647312197E-1
1,412580517E1;-2,935468172E-1;4,149295324E-1;4,854908073E-1;7,028780653E-1
1,413577717E1;-1,311401832E-1;7,749238890E-1;9,001455206E-1;1,194975623E0
1,414574917E1;6,471172035E-2;8,182593584E-1;1,366252223E0;1,593857309E0
1,415572117E1;3,153412172E-1;6,104586697E-1;1,742912314E0;1,873457553E0
1,416569317E1;4,823004203E-1;3,549125415E-1;1,939860570E0;2,030181184E0
1,417566517E1;4,637957369E-1;2,614623410E-1;2,022533183E0;2,091437190E0
1,418563717E1;3,015643001E-1;2,854949820E-1;1,919673058E0;1,964075626E0
1,419560917E1;1,259754838E-1;2,685868809E-1;1,694947019E0;1,720713263E0
1,420558117E1;-7,832900852E-2;1,745750552E-1;1,403882564E0;1,416862074E0
1,421555417E1;-1,731992054E-1;1,611431238E-1;9,866948372E-1;1,014658451E0
1,422552617E1;-2,749104984E-1;2,050747168E-1;5,981368321E-1;6,894919083E-1
1,423549817E1;-3,358129039E-1;2,228917676E-1;2,681369376E-1;4,840955111E-1
1,424547017E1;-2,243181959E-1;1,893971622E-1;-4,163977683E-2;2,965194919E-1
1,425544217E1;-1,175470148E-1;2,524769247E-2;-3,381906742E-1;3,589257288E-1
1,426541417E1;-2,182780221E-2;-1,057077187E-1;-6,214625448E-1;6,307664142E-1
1,427538617E1;2,278841203E-1;-7,055533996E-1;-8,226395077E-1;1,107462203E0
1,428535817E1;2,600474609E-1;-1,101594379E0;-9,690496945E-1;1,490030929E0
1,429533017E1;2,847471231E-1;-1,021947408E0;-1,316366703E0;1,690644470E0
1,430530217E1;2,042129834E-1;-1,223210033E0;-1,376178457E0;1,852515282E0
1,431527417E1;1,230280486E-1;-1,153001345E0;-1,334264445E0;1,767713102E0
1,432524617E1;4,111092541E-1;-9,266354540E-1;-1,193968107E0;1,566277090E0
1,433521817E1;6,054648551E-1;-7,057460654E-1;-7,522980881E-1;1,196084283E0
1,434519017E1;6,545203632E-1;-6,954587665E-1;-5,640107274E-1;1,109129344E0
1,435516217E1;6,782480720E-1;-6,832518268E-1;-3,644031572E-1;1,029389706E0
1,436513517E1;6,093392202E-1;-5,423845080E-1;-2,553274423E-1;8,547908180E-1
1,437510717E1;6,113331208E-1;-3,799605516E-1;-2,476401079E-1;7,611989413E-1
1,438507917E1;5,629702154E-1;-2,742838231E-1;-2,601461327E-1;6,781173124E-1
1,439505117E1;4,587545599E-1;-1,706422180E-1;-3,090925902E-1;5,788892313E-1
1,440502317E1;3,532823378E-1;5,520297825E-2;-3,825330341E-1;5,236289728E-1
1,441499517E1;1,828969587E-1;2,680366579E-1;-4,589602357E-1;5,620849095E-1
1,442496717E1;8,371853337E-2;3,561015728E-1;-5,517251426E-1;6,619801779E-1
1,443493917E1;1,793267950E-1;5,780189019E-1;-6,402420473E-1;8,810072812E-1
1,444491117E1;3,473208091E-1;8,919614652E-1;-7,405603874E-1;1,210230014E0
1,445488317E1;4,986964515E-1;1,006707810E0;-9,251242411E-1;1,455339695E0
1,446485517E1;5,578042004E-1;1,013758382E0;-1,101664546E0;1,597659649E0
1,447482717E1;5,057383995E-1;1,200488045E0;-1,209786580E0;1,777786951E0
1,448479917E1;5,088766001E-1;1,107610579E0;-1,454464488E0;1,897688999E0
1,449477017E1;4,209830086E-1;1,233292679E0;-1,641542060E0;2,095924106E0
1,450474217E1;4,293899891E-1;1,373938096E0;-1,737574391E0;2,256379050E0
1,451471417E1;3,265579310E-1;1,308584936E0;-1,699828275E0;2,169896491E0
1,452468717E1;3,262125067E-1;1,580251545E0;-1,684024420E0;2,332283815E0
1,453465917E1;4,883303614E-1;1,779633705E0;-1,633789237E0;2,464717009E0
1,454463117E1;4,892448659E-1;1,700769969E0;-1,478189566E0;2,305867173E0
1,455460317E1;4,508013234E-1;1,582950328E0;-1,398800164E0;2,159998952E0
1,456457517E1;5,258965293E-1;1,595446705E0;-1,334891852E0;2,145682549E0
1,457454717E1;6,246250114E-1;1,770200100E0;-1,203841715E0;2,230022348E0
1,458451917E1;6,368570942E-1;1,742247486E0;-1,021626104E0;2,117718856E0
1,459449117E1;6,548140396E-1;1,657589743E0;-8,421329552E-1;1,971185708E0
1,460446317E1;7,888779768E-1;1,910166948E0;-8,485058355E-1;2,234060962E0
1,461443517E1;1,035947104E0;2,281221020E0;-1,094707528E0;2,734143434E0
1,462440717E1;1,187598297E0;2,603399094E0;-1,190307165E0;3,099178553E0
1,463437917E1;1,375531316E0;2,908428747E0;-1,265307062E0;3,457173142E0
1,464435117E1;2,154858889E0;3,231387717E0;-1,231057581E0;4,074406236E0
1,465432317E1;3,286580170E0;3,738032581E0;-1,150094109E0;5,108543163E0
1,466429517E1;4,517957008E0;4,481119550E0;-1,217557529E0;6,478797287E0
1,467426817E1;6,012824003E0;5,364444970E0;-1,764021347E0;8,248823773E0
1,468424017E1;7,002474023E0;5,388057196E0;-2,266445691E0;9,121544763E0
1,469421217E1;8,108374876E0;4,656155950E0;-3,070768796E0;9,841501530E0
1,470418417E1;1,042865764E1;6,722112311E0;-2,027512087E0;1,257197277E1
1,471415617E1;1,303507506E1;8,401659518E0;-1,105963418E0;1,554748274E1
1,472412817E1;1,307614474E1;8,707398731E0;-5,072681773E-1;1,571819566E1
1,473410017E1;1,448701589E1;8,873084264E0;2,995177746E-2;1,698841225E1
1,474407217E1;1,582051084E1;8,362873768E0;2,519138378E0;1,807131094E1
1,475404417E1;1,781232276E1;7,778010115E0;4,935639995E0;2,005334948E1
1,476401617E1;2,045683245E1;7,115179104E0;5,022626098E0;2,223363535E1
1,477398817E1;2,215916743E1;6,135386320E0;5,720612324E0;2,369381928E1
1,478396017E1;2,398701874E1;5,495440142E0;5,779501972E0;2,527804528E1
1,479393217E1;2,532749994E1;4,078211600E0;6,065115067E0;2,636094998E1
1,480390417E1;2,598956614E1;2,172199100E0;6,535514796E0;2,688659425E1
1,481387617E1;2,584839096E1;-1,223717863E0;6,704616857E0;2,673179171E1
1,482384917E1;2,477944042E1;-3,425200111E0;7,468217028E0;2,610607073E1
1,483382117E1;2,365540677E1;-4,970919755E0;8,882166744E0;2,575230472E1
1,484379317E1;2,094155494E1;-9,527970078E0;9,817476250E0;2,501427146E1
1,485376517E1;1,671020213E1;-1,432886976E1;9,952887239E0;2,415796614E1
1,486373717E1;1,145746587E1;-1,797671605E1;9,355801152E0;2,328018169E1
1,487370917E1;5,018030187E0;-2,346815085E1;7,995960401E0;2,529565406E1
1,488368117E1;-1,974030237E0;-2,846824529E1;5,789446331E0;2,911795793E1
1,489365317E1;-8,731040193E0;-3,072397245E1;2,729263335E0;3,205686236E1
1,490362517E1;-1,355109184E1;-3,186920343E1;-4,711066568E-1;3,463380082E1
1,491359717E1;-1,668438901E1;-3,147111563E1;-3,672285318E0;3,580901612E1
1,492356917E1;-1,738218637E1;-2,921857170E1;-5,530138689E0;3,444485113E1
1,493354117E1;-1,615448275E1;-2,578919375E1;-6,214250057E0;3,105908452E1
1,494351317E1;-1,333157450E1;-2,196316408E1;-5,887697096E0;2,635861211E1
1,495348517E1;-9,374817467E0;-1,842885201E1;-5,196933936E0;2,131942567E1
1,496345817E1;-5,415936136E0;-1,504189210E1;-4,489907330E0;1,660572642E1
1,497343017E1;-1,828127881E0;-1,158281147E1;-3,798025013E0;1,232593068E1
1,498340217E1;1,479649031E0;-8,677889003E0;-3,435205867E0;9,449643281E0
1,499337417E1;3,647486984E0;-6,554614141E0;-3,585799152E0;8,314149589E0
1,500334617E1;4,696787083E0;-4,496837450E0;-3,765784636E0;7,514152638E0
1,501331817E1;5,172303125E0;-2,947151640E0;-3,771789141E0;7,047326850E0
1,502329017E1;5,474718779E0;-1,845978261E0;-3,536101912E0;6,773787580E0
1,503326217E1;5,404460390E0;-1,210396737E0;-3,074996333E0;6,334733997E0
1,504323417E1;4,891211973E0;-9,794732335E-1;-2,682752827E0;5,663963728E0
1,505320617E1;4,167156814E0;-9,692452839E-1;-2,384643062E0;4,898076650E0
1,506317817E1;3,409704113E0;-9,488756311E-1;-1,940600243E0;4,036381598E0
1,507315017E1;2,809037483E0;-9,263729140E-1;-1,492860230E0;3,313229545E0
1,508312217E1;2,197702754E0;-9,158145967E-1;-1,121643312E0;2,631861982E0
1,509309517E1;1,506323882E0;-5,788386816E-1;-7,610706657E-1;1,784178919E0
1,510306717E1;1,035324522E0;-3,385195801E-1;-4,174011505E-1;1,166497360E0
1,511303917E1;6,398210478E-1;-2,573719212E-1;-2,296324378E-1;7,268716087E-1
1,512301117E1;2,837544121E-1;-1,497670734E-1;-3,628314257E-2;3,228981404E-1
1,513298317E1;-1,243594596E-1;-1,683849004E-1;1,710322273E-1;2,703160606E-1
1,514295517E1;-4,806287013E-1;-1,849553248E-1;3,968651444E-1;6,501648741E-1
1,515292717E1;-6,508401257E-1;-2,915491891E-1;6,489356875E-1;9,642153937E-1
1,516289917E1;-6,135612023E-1;-3,915614274E-1;9,840682679E-1;1,223996755E0
1,517287117E1;-3,919831578E-1;-4,452359435E-1;1,291389152E0;1,421116386E0
1,518284317E1;-1,864066768E-1;-5,146184197E-1;1,414484151E0;1,516688821E0
1,519281517E1;-1,684405951E-1;-4,804619095E-1;1,444527730E0;1,531625360E0
1,520278717E1;-2,230656492E-1;-4,793190712E-1;1,401675825E0;1,498065477E0
1,521275917E1;-2,904112478E-1;-6,001529521E-1;1,321387122E0;1,480062899E0
1,522273117E1;-3,543355675E-1;-7,379019508E-1;1,194559261E0;1,448110773E0
1,523270417E1;-5,716620284E-1;-9,043306652E-1;9,871620297E-1;1,455712987E0
1,524267617E1;-7,154882576E-1;-1,147376616E0;8,482286775E-1;1,596210648E0
1,525264817E1;-8,300650330E-1;-1,446314639E0;7,339840239E-1;1,821967766E0
1,526262017E1;-9,565075631E-1;-1,659547391E0;6,757153505E-1;2,031156197E0
1,527259217E1;-9,624176364E-1;-1,776077721E0;6,716304857E-1;2,128799494E0
1,528256417E1;-9,805857394E-1;-2,059555998E0;6,122508413E-1;2,361815064E0
1,529253617E1;-1,028024200E0;-2,239343846E0;4,801669174E-1;2,510389390E0
1,530250817E1;-1,019181456E0;-2,151057907E0;2,979969138E-1;2,398871218E0
1,531248017E1;-1,139822890E0;-2,282228203E0;1,540343714E-1;2,555677675E0
1,532245217E1;-1,464348037E0;-2,814757229E0;1,293754935E-2;3,172907312E0
1,533242417E1;-1,562048724E0;-2,744686828E0;-3,267494273E-1;3,174912155E0
1,534239617E1;-2,262246805E0;-3,294109045E0;-3,709847832E-1;4,013295992E0
1,535236817E1;-3,205038993E0;-4,237035134E0;-4,353398234E-1;5,330503019E0
1,536234117E1;-3,875736556E0;-4,710571309E0;-5,775020081E-1;6,127342366E0
1,537231317E1;-5,139119006E0;-5,822317039E0;-5,879299325E-1;7,788169327E0
1,538228517E1;-6,421568935E0;-7,001576475E0;-7,865042996E-1;9,532953883E0
1,539225717E1;-8,349949667E0;-8,516909893E0;-1,031387445E0;1,197176569E1
1,540222917E1;-1,068034636E1;-1,045252363E1;-1,131298234E0;1,498682369E1
1,541220117E1;-1,329066738E1;-1,253527144E1;-1,521869436E0;1,833278365E1
1,542217317E1;-1,614012667E1;-1,489753604E1;-2,258678250E0;2,208035091E1
1,543214517E1;-1,884342427E1;-1,748748537E1;-3,173213768E0;2,590281970E1
1,544211717E1;-2,107703960E1;-1,951762344E1;-3,960179998E0;2,899762488E1
1,545208917E1;-2,227566034E1;-2,093469732E1;-4,150151941E0;3,084947903E1
1,546206117E1;-2,201574459E1;-2,129219609E1;-3,766167043E0;3,085829934E1
1,547203317E1;-2,031296756E1;-2,185496019E1;-2,729287893E0;2,996172472E1
1,548200517E1;-1,848492680E1;-2,278434939E1;-5,006327569E-1;2,934398966E1
1,549197825E1;-1,553542984E1;-2,186558809E1;1,642349560E0;2,687286429E1
1,550195025E1;-1,176924760E1;-2,101413292E1;4,157872605E0;2,444170362E1
1,551192225E1;-7,975466495E0;-2,118853431E1;6,948781965E0;2,368222166E1
1,552189425E1;-3,928392487E0;-2,172839604E1;8,778090983E0;2,376153074E1
1,553186625E1;-7,039628108E-1;-2,142334680E1;1,037267756E1;2,381276530E1
1,554183825E1;3,052716687E0;-2,143012489E1;1,184236586E1;2,467409494E1
1,555181025E1;6,398829698E0;-2,025384285E1;1,289714977E1;2,484954012E1
1,556178225E1;9,059957768E0;-1,878245886E1;1,321665333E1;2,468893519E1
1,557175425E1;1,182016983E1;-1,808317280E1;1,306751658E1;2,524831763E1
1,558172625E1;1,411139193E1;-1,735949683E1;1,176214791E1;2,527511891E1
1,559169825E1;1,590914762E1;-1,641564162E1;1,013604308E1;2,500627196E1
1,560167025E1;1,751602914E1;-1,596714147E1;8,052214708E0;2,503196047E1
1,561164225E1;1,860133434E1;-1,455531956E1;6,297492773E0;2,444433231E1
1,562161525E1;1,959941078E1;-1,187744097E1;4,652293864E0;2,338491705E1
1,563158725E1;1,961210392E1;-9,423592601E0;3,551592940E0;2,204659906E1
1,564155925E1;1,950894734E1;-7,122976366E0;3,048031313E0;2,099110082E1
1,565153125E1;2,024243611E1;-6,668258286E0;2,640824198E0;2,147547067E1
1,566150325E1;1,983349822E1;-7,359171719E0;2,225163764E0;2,127149298E1
1,567147525E1;1,972332732E1;-7,493264161E0;1,505495478E0;2,115242693E1
1,568144725E1;1,928779746E1;-7,678543714E0;4,067790985E-1;2,076402258E1
1,569141925E1;1,809697106E1;-7,437056047E0;-7,034855318E-1;1,957817806E1
1,570139125E1;1,670355618E1;-7,168720888E0;-1,957218030E0;1,828195971E1
1,571136325E1;1,520284607E1;-7,107374825E0;-3,226542129E0;1,708952543E1
1,572133525E1;1,388501580E1;-6,496620871E0;-4,545634219E0;1,598945081E1
1,573130725E1;1,279939017E1;-5,736072947E0;-5,880802644E0;1,520890402E1
1,574127925E1;1,172771483E1;-4,955352713E0;-6,973060774E0;1,451614247E1
1,575125125E1;1,056579589E1;-4,038080405E0;-7,845440791E0;1,376564846E1
1,576122425E1;9,552977450E0;-3,284344195E0;-8,467733055E0;1,318138073E1
1,577119625E1;8,471475858E0;-2,750984279E0;-8,607425376E0;1,238634689E1
1,578116825E1;7,484286346E0;-2,173488995E0;-8,346153654E0;1,141914521E1
1,579114025E1;6,673818988E0;-1,697665682E0;-7,788521070E0;1,039629689E1
1,580111225E1;5,960236484E0;-1,263140668E0;-6,751059537E0;9,093775243E0
1,581108425E1;5,453968765E0;-1,043243552E0;-5,435918410E0;7,770671873E0
1,582105625E1;4,949946377E0;-1,192518875E0;-3,804155819E0;6,355758955E0
1,583102825E1;4,382784001E0;-1,491426492E0;-2,021564884E0;5,051719822E0
1,584100025E1;3,711306127E0;-1,748349640E0;-4,304714316E-1;4,125024277E0
1,585097225E1;2,949843698E0;-2,084891107E0;7,154910350E-1;3,682428029E0
1,586094425E1;2,037386280E0;-2,280527833E0;1,542211314E0;3,424932961E0
1,587091625E1;1,150049086E0;-2,118483945E0;2,091854848E0;3,191620879E0
1,588088825E1;5,393318228E-1;-1,984106451E0;2,385857529E0;3,149583048E0
1,589086125E1;7,844975352E-2;-2,053374030E0;2,563821630E0;3,285678107E0
1,590083325E1;-2,627320638E-1;-2,121471580E0;2,646334029E0;3,401875012E0
1,591080525E1;-5,462256901E-1;-2,331730146E0;2,588833680E0;3,526668088E0
1,592077725E1;-7,291270342E-1;-2,640962777E0;2,330085032E0;3,596610471E0
1,593074925E1;-8,797146913E-1;-2,791829127E0;1,990494534E0;3,539813032E0
1,594072125E1;-8,545993651E-1;-2,766785502E0;1,542938123E0;3,281173592E0
1,595069325E1;-7,146416538E-1;-2,817006653E0;1,073434188E0;3,098144627E0
1,596066525E1;-3,710432188E-1;-2,778557409E0;4,467512494E-1;2,838598426E0
1,597063725E1;1,370665190E-1;-2,594751647E0;-5,704309702E-2;2,598995432E0
1,598060925E1;8,723500501E-1;-2,512730122E0;-5,082791609E-1;2,707979871E0
1,599058125E1;1,857168516E0;-2,466408480E0;-8,694078773E-1;3,207509274E0
1,600055325E1;3,013806390E0;-2,303446287E0;-1,091788598E0;3,947264382E0
1,601052625E1;4,323065802E0;-2,097190140E0;-1,183607426E0;4,948538264E0
1,602049825E1;5,708094020E0;-1,976000456E0;-1,225267083E0;6,163456382E0
1,603047025E1;7,130474836E0;-1,734086527E0;-1,144386057E0;7,427001206E0
1,604044225E1;8,947425764E0;-1,562691187E0;-7,955715770E-1;9,117640357E0
1,605041425E1;1,100510071E1;-1,780721872E0;-6,352122724E-1;1,116632020E1
1,606038625E1;1,303295135E1;-1,918833983E0;-3,641476339E-1;1,317848050E1
1,607035825E1;1,519646909E1;-1,818699538E0;4,289926708E-2;1,530497243E1
1,608033025E1;1,732431765E1;-2,059972905E0;3,572017264E-1;1,745001614E1
1,609030225E1;1,920556924E1;-2,737545916E0;5,621027809E-1;1,940783365E1
1,610027425E1;2,041493131E1;-3,651039460E0;3,374200112E-1;2,074158532E1
1,611024625E1;2,071174065E1;-4,227599190E0;-1,411816067E-1;2,113926981E1
1,612021825E1;2,051840831E1;-4,431538962E0;-5,657286394E-1;2,099913489E1
1,613019025E1;1,993752252E1;-4,937029878E0;-9,342359573E-1;2,056093055E1
1,614016225E1;1,954659172E1;-5,696600148E0;-8,869278896E-1;2,037908590E1
1,615013525E1;1,941153975E1;-6,559258000E0;-3,145182216E-1;2,049220980E1
1,616010725E1;1,910184314E1;-7,451453061E0;3,357231492E-1;2,050651784E1
1,617007925E1;1,864679995E1;-8,590207665E0;1,241661506E0;2,056785209E1
1,618005125E1;1,786454073E1;-9,809866099E0;2,250521384E0;2,050463691E1
1,619002325E1;1,670861402E1;-1,074222627E1;3,373936987E0;2,014836615E1
1,619999525E1;1,558973644E1;-1,186814390E1;4,552355009E0;2,011508534E1
1,620996725E1;1,418499551E1;-1,312102212E1;5,924255058E0;2,021069313E1
1,621993925E1;1,242978650E1;-1,403916244E1;7,401549999E0;2,015888432E1
1,622991125E1;1,063308682E1;-1,464641216E1;8,912980986E0;2,017476529E1
1,623988325E1;8,725803427E0;-1,510852697E1;1,042263033E1;2,032334755E1
1,624985525E1;6,871638479E0;-1,556514189E1;1,168161421E1;2,063863290E1
1,625982725E1;5,444377577E0;-1,607948286E1;1,283437172E1;2,128173192E1
1,626979925E1;4,065729257E0;-1,644388952E1;1,389916022E1;2,191160222E1
1,627977225E1;3,079096400E0;-1,661757171E1;1,463005867E1;2,235314610E1
1,628974425E1;2,441786878E0;-1,682312940E1;1,459451695E1;2,240490864E1
1,629971625E1;1,403245949E0;-1,680836168E1;1,401066779E1;2,192689977E1
1,630968825E1;3,096876906E-1;-1,624146593E1;1,315393025E1;2,090232052E1
1,631966025E1;-4,529607001E-1;-1,567324053E1;1,222036263E1;1,987945937E1
1,632963225E1;-7,792623769E-1;-1,536752939E1;1,137449739E1;1,913497845E1
1,633960425E1;-1,056955711E0;-1,505883967E1;1,058752064E1;1,843858457E1
1,634957625E1;-1,584977850E0;-1,456469381E1;9,778730845E0;1,761437020E1
1,635954825E1;-2,151607545E0;-1,407091165E1;8,872170929E0;1,677305538E1
1,636952025E1;-2,856144991E0;-1,361062936E1;7,853559650E0;1,597138676E1
1,637949225E1;-3,692708766E0;-1,311932642E1;6,639568922E0;1,516036607E1
1,638946425E1;-4,629625379E0;-1,263378065E1;5,222870430E0;1,443344104E1
1,639943725E1;-5,558086041E0;-1,211668214E1;3,757312020E0;1,385004332E1
1,640940925E1;-6,289516586E0;-1,172487659E1;2,384344854E0;1,351724270E1
